"ITI","_prepare","acc","accuracy","average_response_time","avg_rt","background","bidi","canvas_backend","clock_backend","color_backend","compensation","cond_trig","condtrigtime","coordinates","coroutines_cycles","coroutines_duration","coroutines_mean_cycle_duration","correct","correct_instructions_1","correct_new_keyboard_response_1","count_AB_m21","count_ITI","count_blank_screen","count_blink_screen","count_block1","count_break1","count_break2","count_break3_1","count_canvas","count_close_port","count_cond_trigger","count_correct_trigger","count_def_chain","count_end_screen","count_fixation_1","count_getting_started","count_inc_counter","count_instructions_1","count_logger","count_logscript","count_new_inline_script","count_new_inline_script_2","count_new_keyboard_response_1","count_open_port","count_reset_counter_prep","count_reset_counter_run","count_reset_counter_run_1","count_response_trigger_trial","count_responsescreen","count_sequence","count_target_present","count_word_trigger","counter","cresp","datetime","description","disable_garbage_collection","experiment_file","experiment_path","font_bold","font_family","font_italic","font_size","font_underline","foreground","form_clicks","fullscreen","height","keyboard_backend","live_row","live_row_block1","logfile","mouse_backend","opensesame_codename","opensesame_version","repeat_cycle","response","response_break1","response_break2","response_break3_1","response_end_screen","response_instructions_1","response_new_keyboard_response_1","response_time","response_time_break1","response_time_break2","response_time_break3_1","response_time_end_screen","response_time_instructions_1","response_time_new_keyboard_response_1","round_decimals","sampler_backend","sound_buf_size","sound_channels","sound_freq","sound_sample_size","start","subject_nr","subject_parity","targ_type","target","time_AB_m21","time_ITI","time_blank_screen","time_blink_screen","time_block1","time_break1","time_break2","time_break3_1","time_canvas","time_close_port","time_cond_trigger","time_correct_trigger","time_def_chain","time_end_screen","time_fixation_1","time_getting_started","time_inc_counter","time_instructions_1","time_logger","time_logscript","time_new_inline_script","time_new_inline_script_2","time_new_keyboard_response_1","time_open_port","time_reset_counter_prep","time_reset_counter_run","time_reset_counter_run_1","time_response_trigger_trial","time_responsescreen","time_sequence","time_target_present","time_word_trigger","title","total_correct","total_response_time","total_responses","uniform_coordinates","width","word_trig"
"250","","0","0","1200","1200","black","no","xpyriment","legacy","legacy","0","202","NA","uniform","NA","NA","NA","0","undefined","0","0","0","0","0","0","0","0","0","NA","0","0","NA","NA","0","0","NA","0","0","0","NA","NA","NA","0","0","0","NA","NA","0","0","0","0","0","1","/","Thu Oct 26 11:32:37 2023","Executes Python code","yes","m21-ba-lexicalDecision.osexp","C:\Users\ekealey\Desktop","no","mono","no","18","no","white","no","yes","1080","legacy","0","0","C:/Users/ekealey/Desktop/226.csv","xpyriment","Lentiform Loewenfeld","3.3.11","0","None","NA","NA","NA","NA","space","None","1200","NA","NA","NA","NA","39015","1200","2","legacy","1024","2","48000","-16","AB_m21","226","even","CW_L","DREAMER","1808","45286","42919","NA","40986","NA","NA","NA","NA","NA","43419","NA","NA","NA","42419","NA","42388","1969","45536","NA","NA","NA","43460","1808","1958","NA","NA","44660","44683","42388","43419","43440","morph21_Oliver/Morris","0","1200","1","yes","1920","12"
"400","","0","0","1014","1014","black","no","xpyriment","legacy","legacy","0","204","NA","uniform","NA","NA","NA","0","undefined","0","0","1","1","1","0","1","1","1","NA","0","1","NA","NA","0","1","NA","1","0","1","NA","NA","NA","1","0","0","NA","NA","1","1","1","1","1","2","z","Thu Oct 26 11:32:37 2023","Executes Python code","yes","m21-ba-lexicalDecision.osexp","C:\Users\ekealey\Desktop","no","mono","no","18","no","white","no","yes","1080","legacy","1","1","C:/Users/ekealey/Desktop/226.csv","xpyriment","Lentiform Loewenfeld","3.3.11","0","/","NA","NA","NA","NA","space","/","828","NA","NA","NA","NA","39015","828","2","legacy","1024","2","48000","-16","AB_m21","226","even","NW_L_COMP","BOIL","1808","49100","47102","NA","40986","NA","NA","NA","NA","NA","47603","NA","NA","NA","46601","NA","46570","1969","49500","NA","NA","NA","47644","1808","1958","NA","NA","48473","48496","46569","47603","47624","morph21_Oliver/Morris","0","2028","2","yes","1920","18"
"400","","0","0","1076","1076","black","no","xpyriment","legacy","legacy","0","205","NA","uniform","NA","NA","NA","0","undefined","0","0","2","2","2","0","2","2","2","NA","0","2","NA","NA","0","2","NA","2","0","2","NA","NA","NA","2","0","0","NA","NA","2","2","2","2","2","3","z","Thu Oct 26 11:32:37 2023","Executes Python code","yes","m21-ba-lexicalDecision.osexp","C:\Users\ekealey\Desktop","no","mono","no","18","no","white","no","yes","1080","legacy","2","2","C:/Users/ekealey/Desktop/226.csv","xpyriment","Lentiform Loewenfeld","3.3.11","0","None","NA","NA","NA","NA","space","None","1200","NA","NA","NA","NA","39015","1200","2","legacy","1024","2","48000","-16","AB_m21","226","even","NW_S_SIMP","ADVERTISELY","1808","54980","51109","53476","40986","NA","NA","NA","NA","NA","51609","NA","NA","NA","50608","NA","50581","1969","55381","NA","NA","NA","51650","1808","1958","NA","NA","52850","52873","50581","51609","51630","morph21_Oliver/Morris","0","3228","3","yes","1920","25"
"200","","25","25","1051.5","1051.5","black","no","xpyriment","legacy","legacy","0","204","NA","uniform","NA","NA","NA","1","undefined","1","0","3","3","3","0","3","3","3","NA","0","3","NA","NA","0","3","NA","3","0","3","NA","NA","NA","3","0","0","NA","NA","3","3","3","3","3","4","z","Thu Oct 26 11:32:37 2023","Executes Python code","yes","m21-ba-lexicalDecision.osexp","C:\Users\ekealey\Desktop","no","mono","no","18","no","white","no","yes","1080","legacy","3","3","C:/Users/ekealey/Desktop/226.csv","xpyriment","Lentiform Loewenfeld","3.3.11","0","z","NA","NA","NA","NA","space","z","978","NA","NA","NA","NA","39015","978","2","legacy","1024","2","48000","-16","AB_m21","226","even","NW_L_COMP","FLIPODY","1808","59094","56946","53476","40986","NA","NA","NA","NA","NA","57446","NA","NA","NA","56446","NA","56412","1969","59294","NA","NA","NA","57487","1808","1958","NA","NA","58465","58490","56412","57446","57467","morph21_Oliver/Morris","1","4206","4","yes","1920","16"
"300","","20","20","1081.2","1081.2","black","no","xpyriment","legacy","legacy","0","206","NA","uniform","NA","NA","NA","0","undefined","0","0","4","4","4","0","4","4","4","NA","0","4","NA","NA","0","4","NA","4","0","4","NA","NA","NA","4","0","0","NA","NA","4","4","4","4","4","5","z","Thu Oct 26 11:32:37 2023","Executes Python code","yes","m21-ba-lexicalDecision.osexp","C:\Users\ekealey\Desktop","no","mono","no","18","no","white","no","yes","1080","legacy","4","4","C:/Users/ekealey/Desktop/226.csv","xpyriment","Lentiform Loewenfeld","3.3.11","0","None","NA","NA","NA","NA","space","None","1200","NA","NA","NA","NA","39015","1200","2","legacy","1024","2","48000","-16","AB_m21","226","even","NW_L_SIMP","LONGNESS","1808","63244","60877","53476","40986","NA","NA","NA","NA","NA","61377","NA","NA","NA","60376","NA","60348","1969","63544","NA","NA","NA","61418","1808","1958","NA","NA","62618","62641","60348","61377","61398","morph21_Oliver/Morris","1","5406","5","yes","1920","17"
"300","","33.333333333333336","33.333333333333336","1060.6666666666667","1060.6666666666667","black","no","xpyriment","legacy","legacy","0","202","NA","uniform","NA","NA","NA","1","undefined","1","0","5","5","5","0","5","5","5","NA","0","5","NA","NA","0","5","NA","5","0","5","NA","NA","NA","5","0","0","NA","NA","5","5","5","5","5","6","/","Thu Oct 26 11:32:37 2023","Executes Python code","yes","m21-ba-lexicalDecision.osexp","C:\Users\ekealey\Desktop","no","mono","no","18","no","white","no","yes","1080","legacy","5","5","C:/Users/ekealey/Desktop/226.csv","xpyriment","Lentiform Loewenfeld","3.3.11","0","/","NA","NA","NA","NA","space","/","958","NA","NA","NA","NA","39015","958","2","legacy","1024","2","48000","-16","AB_m21","226","even","CW_L","KNOCKER","1808","68735","65101","67231","40986","NA","NA","NA","NA","NA","65601","NA","NA","NA","64601","NA","64573","1969","69036","NA","NA","NA","65642","1808","1958","NA","NA","66600","66627","64573","65601","65622","morph21_Oliver/Morris","2","6364","6","yes","1920","4"
"400","","42.857142857142854","42.857142857142854","1038","1038","black","no","xpyriment","legacy","legacy","0","201","NA","uniform","NA","NA","NA","1","undefined","1","0","6","6","6","0","6","6","6","NA","0","6","NA","NA","0","6","NA","6","0","6","NA","NA","NA","6","0","0","NA","NA","6","6","6","6","6","7","/","Thu Oct 26 11:32:37 2023","Executes Python code","yes","m21-ba-lexicalDecision.osexp","C:\Users\ekealey\Desktop","no","mono","no","18","no","white","no","yes","1080","legacy","6","6","C:/Users/ekealey/Desktop/226.csv","xpyriment","Lentiform Loewenfeld","3.3.11","0","/","NA","NA","NA","NA","space","/","902","NA","NA","NA","NA","39015","902","2","legacy","1024","2","48000","-16","AB_m21","226","even","CW_S","DIETARY","1808","72679","70605","67231","40986","NA","NA","NA","NA","NA","71105","NA","NA","NA","70105","NA","70071","1969","73079","NA","NA","NA","71146","1808","1958","NA","NA","72049","72075","70071","71105","71126","morph21_Oliver/Morris","3","7266","7","yes","1920","6"
"350","","50","50","1048.375","1048.375","black","no","xpyriment","legacy","legacy","0","206","NA","uniform","NA","NA","NA","1","undefined","1","0","7","7","7","0","7","7","7","NA","0","7","NA","NA","0","7","NA","7","0","7","NA","NA","NA","7","0","0","NA","NA","7","7","7","7","7","8","z","Thu Oct 26 11:32:37 2023","Executes Python code","yes","m21-ba-lexicalDecision.osexp","C:\Users\ekealey\Desktop","no","mono","no","18","no","white","no","yes","1080","legacy","7","7","C:/Users/ekealey/Desktop/226.csv","xpyriment","Lentiform Loewenfeld","3.3.11","0","z","NA","NA","NA","NA","space","z","1121","NA","NA","NA","NA","39015","1121","2","legacy","1024","2","48000","-16","AB_m21","226","even","NW_L_SIMP","NUTLY","1808","76959","74666","67231","40986","NA","NA","NA","NA","NA","75166","NA","NA","NA","74166","NA","74140","1969","77309","NA","NA","NA","75207","1808","1958","NA","NA","76328","76354","74140","75166","75186","morph21_Oliver/Morris","4","8387","8","yes","1920","14"
"250","","55.55555555555556","55.55555555555556","1061.4444444444443","1061.4444444444443","black","no","xpyriment","legacy","legacy","0","206","NA","uniform","NA","NA","NA","1","undefined","1","0","8","8","8","0","8","8","8","NA","0","8","NA","NA","0","8","NA","8","0","8","NA","NA","NA","8","0","0","NA","NA","8","8","8","8","8","9","z","Thu Oct 26 11:32:37 2023","Executes Python code","yes","m21-ba-lexicalDecision.osexp","C:\Users\ekealey\Desktop","no","mono","no","18","no","white","no","yes","1080","legacy","8","8","C:/Users/ekealey/Desktop/226.csv","xpyriment","Lentiform Loewenfeld","3.3.11","0","z","NA","NA","NA","NA","space","z","1166","NA","NA","NA","NA","39015","1166","2","legacy","1024","2","48000","-16","AB_m21","226","even","NW_L_SIMP"," DRESSORY","1808","82717","78878","81213","40986","NA","NA","NA","NA","NA","79378","NA","NA","NA","78377","NA","78349","1969","82967","NA","NA","NA","79419","1808","1958","NA","NA","80585","80609","78349","79378","79399","morph21_Oliver/Morris","5","9553","9","yes","1920","21"
"400","","60","60","1048.1","1048.1","black","no","xpyriment","legacy","legacy","0","205","NA","uniform","NA","NA","NA","1","undefined","1","0","9","9","9","0","9","9","9","NA","0","9","NA","NA","0","9","NA","9","0","9","NA","NA","NA","9","0","0","NA","NA","9","9","9","9","9","10","z","Thu Oct 26 11:32:37 2023","Executes Python code","yes","m21-ba-lexicalDecision.osexp","C:\Users\ekealey\Desktop","no","mono","no","18","no","white","no","yes","1080","legacy","9","9","C:/Users/ekealey/Desktop/226.csv","xpyriment","Lentiform Loewenfeld","3.3.11","0","z","NA","NA","NA","NA","space","z","928","NA","NA","NA","NA","39015","928","2","legacy","1024","2","48000","-16","AB_m21","226","even","NW_S_SIMP","RAMPIZE","1808","86636","84540","81213","40986","NA","NA","NA","NA","NA","85040","NA","NA","NA","84040","NA","84012","1969","87036","NA","NA","NA","85080","1808","1958","NA","NA","86009","86033","84012","85040","85060","morph21_Oliver/Morris","6","10481","10","yes","1920","6"
"350","","63.63636363636363","63.63636363636363","1010.7272727272727","1010.7272727272727","black","no","xpyriment","legacy","legacy","0","202","NA","uniform","NA","NA","NA","1","undefined","1","0","10","10","10","0","10","10","10","NA","0","10","NA","NA","0","10","NA","10","0","10","NA","NA","NA","10","0","0","NA","NA","10","10","10","10","10","11","/","Thu Oct 26 11:32:37 2023","Executes Python code","yes","m21-ba-lexicalDecision.osexp","C:\Users\ekealey\Desktop","no","mono","no","18","no","white","no","yes","1080","legacy","10","10","C:/Users/ekealey/Desktop/226.csv","xpyriment","Lentiform Loewenfeld","3.3.11","0","/","NA","NA","NA","NA","space","/","637","NA","NA","NA","NA","39015","637","2","legacy","1024","2","48000","-16","AB_m21","226","even","CW_L","JUMPING","1808","90397","88587","81213","40986","NA","NA","NA","NA","NA","89090","NA","NA","NA","88086","NA","88052","1969","90747","NA","NA","NA","89131","1808","1958","NA","NA","89769","89793","88052","89090","89111","morph21_Oliver/Morris","7","11118","11","yes","1920","30"
"200","","66.66666666666667","66.66666666666667","1021.8333333333334","1021.8333333333334","black","no","xpyriment","legacy","legacy","0","205","NA","uniform","NA","NA","NA","1","undefined","1","0","11","11","11","0","11","11","11","NA","0","11","NA","NA","0","11","NA","11","0","11","NA","NA","NA","11","0","0","NA","NA","11","11","11","11","11","12","z","Thu Oct 26 11:32:37 2023","Executes Python code","yes","m21-ba-lexicalDecision.osexp","C:\Users\ekealey\Desktop","no","mono","no","18","no","white","no","yes","1080","legacy","11","11","C:/Users/ekealey/Desktop/226.csv","xpyriment","Lentiform Loewenfeld","3.3.11","0","z","NA","NA","NA","NA","space","z","1144","NA","NA","NA","NA","39015","1144","2","legacy","1024","2","48000","-16","AB_m21","226","even","NW_S_SIMP","NULLISH","1808","96126","92308","94620","40986","NA","NA","NA","NA","NA","92808","NA","NA","NA","91808","NA","91780","1969","96327","NA","NA","NA","92848","1808","1958","NA","NA","93993","94017","91780","92808","92828","morph21_Oliver/Morris","8","12262","12","yes","1920","23"
"300","","69.23076923076923","69.23076923076923","1015.8461538461538","1015.8461538461538","black","no","xpyriment","legacy","legacy","0","204","NA","uniform","NA","NA","NA","1","undefined","1","0","12","12","12","0","12","12","12","NA","0","12","NA","NA","0","12","NA","12","0","12","NA","NA","NA","12","0","0","NA","NA","12","12","12","12","12","13","z","Thu Oct 26 11:32:37 2023","Executes Python code","yes","m21-ba-lexicalDecision.osexp","C:\Users\ekealey\Desktop","no","mono","no","18","no","white","no","yes","1080","legacy","12","12","C:/Users/ekealey/Desktop/226.csv","xpyriment","Lentiform Loewenfeld","3.3.11","0","z","NA","NA","NA","NA","space","z","944","NA","NA","NA","NA","39015","944","2","legacy","1024","2","48000","-16","AB_m21","226","even","NW_L_COMP","KINGILM","1808","99998","97883","94620","40986","NA","NA","NA","NA","NA","98383","NA","NA","NA","97382","NA","97351","1969","100298","NA","NA","NA","98424","1808","1958","NA","NA","99369","99394","97351","98383","98404","morph21_Oliver/Morris","9","13206","13","yes","1920","19"
"400","","64.28571428571429","64.28571428571429","1029","1029","black","no","xpyriment","legacy","legacy","0","208","NA","uniform","NA","NA","NA","0","undefined","0","0","13","13","13","0","13","13","13","NA","0","13","NA","NA","0","13","NA","13","0","13","NA","NA","NA","13","0","0","NA","NA","13","13","13","13","13","14","z","Thu Oct 26 11:32:37 2023","Executes Python code","yes","m21-ba-lexicalDecision.osexp","C:\Users\ekealey\Desktop","no","mono","no","18","no","white","no","yes","1080","legacy","13","13","C:/Users/ekealey/Desktop/226.csv","xpyriment","Lentiform Loewenfeld","3.3.11","0","None","NA","NA","NA","NA","space","None","1200","NA","NA","NA","NA","39015","1200","2","legacy","1024","2","48000","-16","AB_m21","226","even","FILL_NW","DROES","1808","104246","101878","94620","40986","NA","NA","NA","NA","NA","102378","NA","NA","NA","101378","NA","101348","1969","104647","NA","NA","NA","102418","1808","1958","NA","NA","103618","103643","101348","102378","102398","morph21_Oliver/Morris","9","14406","14","yes","1920","17"
"200","","60","60","1040.4","1040.4","black","no","xpyriment","legacy","legacy","0","203","NA","uniform","NA","NA","NA","0","undefined","0","0","14","14","14","0","14","14","14","NA","0","14","NA","NA","0","14","NA","14","0","14","NA","NA","NA","14","0","0","NA","NA","14","14","14","14","14","15","z","Thu Oct 26 11:32:37 2023","Executes Python code","yes","m21-ba-lexicalDecision.osexp","C:\Users\ekealey\Desktop","no","mono","no","18","no","white","no","yes","1080","legacy","14","14","C:/Users/ekealey/Desktop/226.csv","xpyriment","Lentiform Loewenfeld","3.3.11","0","None","NA","NA","NA","NA","space","None","1200","NA","NA","NA","NA","39015","1200","2","legacy","1024","2","48000","-16","AB_m21","226","even","NW_S_COMP","PILLIME","1808","110107","106235","108602","40986","NA","NA","NA","NA","NA","106735","NA","NA","NA","105734","NA","105707","1969","110307","NA","NA","NA","106775","1808","1958","NA","NA","107975","107998","105707","106735","106755","morph21_Oliver/Morris","9","15606","15","yes","1920","13"
"300","","62.5","62.5","1045.125","1045.125","black","no","xpyriment","legacy","legacy","0","206","NA","uniform","NA","NA","NA","1","undefined","1","0","15","15","15","0","15","15","15","NA","0","15","NA","NA","0","15","NA","15","0","15","NA","NA","NA","15","0","0","NA","NA","15","15","15","15","15","16","z","Thu Oct 26 11:32:37 2023","Executes Python code","yes","m21-ba-lexicalDecision.osexp","C:\Users\ekealey\Desktop","no","mono","no","18","no","white","no","yes","1080","legacy","15","15","C:/Users/ekealey/Desktop/226.csv","xpyriment","Lentiform Loewenfeld","3.3.11","0","z","NA","NA","NA","NA","space","z","1116","NA","NA","NA","NA","39015","1116","2","legacy","1024","2","48000","-16","AB_m21","226","even","NW_L_SIMP","BANDARY","1808","114180","111894","108602","40986","NA","NA","NA","NA","NA","112395","NA","NA","NA","111393","NA","111368","1969","114480","NA","NA","NA","112436","1808","1958","NA","NA","113552","113576","111368","112395","112416","morph21_Oliver/Morris","10","16722","16","yes","1920","3"
"300","","58.8235294117647","58.8235294117647","1054.235294117647","1054.235294117647","black","no","xpyriment","legacy","legacy","0","205","NA","uniform","NA","NA","NA","0","undefined","0","0","16","16","16","0","16","16","16","NA","0","16","NA","NA","0","16","NA","16","0","16","NA","NA","NA","16","0","0","NA","NA","16","16","16","16","16","17","z","Thu Oct 26 11:32:37 2023","Executes Python code","yes","m21-ba-lexicalDecision.osexp","C:\Users\ekealey\Desktop","no","mono","no","18","no","white","no","yes","1080","legacy","16","16","C:/Users/ekealey/Desktop/226.csv","xpyriment","Lentiform Loewenfeld","3.3.11","0","None","NA","NA","NA","NA","space","None","1200","NA","NA","NA","NA","39015","1200","2","legacy","1024","2","48000","-16","AB_m21","226","even","NW_S_SIMP","YIELDIST","1808","118401","116033","108602","40986","NA","NA","NA","NA","NA","116533","NA","NA","NA","115531","NA","115504","1969","118701","NA","NA","NA","116574","1808","1958","NA","NA","117774","117798","115504","116533","116554","morph21_Oliver/Morris","10","17922","17","yes","1920","20"
"300","","61.111111111111114","61.111111111111114","1046.3333333333333","1046.3333333333333","black","no","xpyriment","legacy","legacy","0","206","NA","uniform","NA","NA","NA","1","undefined","1","0","17","17","17","0","17","17","17","NA","0","17","NA","NA","0","17","NA","17","0","17","NA","NA","NA","17","0","0","NA","NA","17","17","17","17","17","18","z","Thu Oct 26 11:32:37 2023","Executes Python code","yes","m21-ba-lexicalDecision.osexp","C:\Users\ekealey\Desktop","no","mono","no","18","no","white","no","yes","1080","legacy","17","17","C:/Users/ekealey/Desktop/226.csv","xpyriment","Lentiform Loewenfeld","3.3.11","0","z","NA","NA","NA","NA","space","z","912","NA","NA","NA","NA","39015","912","2","legacy","1024","2","48000","-16","AB_m21","226","even","NW_L_SIMP","BEANISH","1808","123844","120257","122339","40986","NA","NA","NA","NA","NA","120759","NA","NA","NA","119756","NA","119730","1969","124144","NA","NA","NA","120800","1808","1958","NA","NA","121712","121736","119730","120759","120780","morph21_Oliver/Morris","11","18834","18","yes","1920","8"
"200","","63.1578947368421","63.1578947368421","1040.1052631578948","1040.1052631578948","black","no","xpyriment","legacy","legacy","0","208","NA","uniform","NA","NA","NA","1","undefined","1","0","18","18","18","0","18","18","18","NA","0","18","NA","NA","0","18","NA","18","0","18","NA","NA","NA","18","0","0","NA","NA","18","18","18","18","18","19","z","Thu Oct 26 11:32:37 2023","Executes Python code","yes","m21-ba-lexicalDecision.osexp","C:\Users\ekealey\Desktop","no","mono","no","18","no","white","no","yes","1080","legacy","18","18","C:/Users/ekealey/Desktop/226.csv","xpyriment","Lentiform Loewenfeld","3.3.11","0","z","NA","NA","NA","NA","space","z","928","NA","NA","NA","NA","39015","928","2","legacy","1024","2","48000","-16","AB_m21","226","even","FILL_NW","FROT","1808","127828","125731","122339","40986","NA","NA","NA","NA","NA","126232","NA","NA","NA","125231","NA","125200","1969","128028","NA","NA","NA","126272","1808","1958","NA","NA","127201","127224","125200","126232","126252","morph21_Oliver/Morris","12","19762","19","yes","1920","22"
"400","","60","60","1022.1","1022.1","black","no","xpyriment","legacy","legacy","0","208","NA","uniform","NA","NA","NA","0","undefined","0","0","19","19","19","0","19","19","19","NA","0","19","NA","NA","0","19","NA","19","0","19","NA","NA","NA","19","0","0","NA","NA","19","19","19","19","19","20","z","Thu Oct 26 11:32:37 2023","Executes Python code","yes","m21-ba-lexicalDecision.osexp","C:\Users\ekealey\Desktop","no","mono","no","18","no","white","no","yes","1080","legacy","19","19","C:/Users/ekealey/Desktop/226.csv","xpyriment","Lentiform Loewenfeld","3.3.11","0","/","NA","NA","NA","NA","space","/","680","NA","NA","NA","NA","39015","680","2","legacy","1024","2","48000","-16","AB_m21","226","even","FILL_NW","HEND","1808","131412","129563","122339","40986","NA","NA","NA","NA","NA","130063","NA","NA","NA","129063","NA","129037","1969","131812","NA","NA","NA","130104","1808","1958","NA","NA","130784","130808","129037","130063","130084","morph21_Oliver/Morris","12","20442","20","yes","1920","28"
"400","","61.904761904761905","61.904761904761905","1016.0952380952381","1016.0952380952381","black","no","xpyriment","legacy","legacy","0","206","NA","uniform","NA","NA","NA","1","undefined","1","0","20","20","20","0","20","20","20","NA","0","20","NA","NA","0","20","NA","20","0","20","NA","NA","NA","20","0","0","NA","NA","20","20","20","20","20","21","z","Thu Oct 26 11:32:37 2023","Executes Python code","yes","m21-ba-lexicalDecision.osexp","C:\Users\ekealey\Desktop","no","mono","no","18","no","white","no","yes","1080","legacy","20","20","C:/Users/ekealey/Desktop/226.csv","xpyriment","Lentiform Loewenfeld","3.3.11","0","z","NA","NA","NA","NA","space","z","896","NA","NA","NA","NA","39015","896","2","legacy","1024","2","48000","-16","AB_m21","226","even","NW_L_SIMP","POORITY","1808","136940","133372","135435","40986","NA","NA","NA","NA","NA","133872","NA","NA","NA","132872","NA","132844","1969","137340","NA","NA","NA","133912","1808","1958","NA","NA","134809","134832","132844","133872","133892","morph21_Oliver/Morris","13","21338","21","yes","1920","13"
"200","","59.09090909090909","59.09090909090909","1024.4545454545455","1024.4545454545455","black","no","xpyriment","legacy","legacy","0","203","NA","uniform","NA","NA","NA","0","undefined","0","0","21","21","21","0","21","21","21","NA","0","21","NA","NA","0","21","NA","21","0","21","NA","NA","NA","21","0","0","NA","NA","21","21","21","21","21","22","z","Thu Oct 26 11:32:37 2023","Executes Python code","yes","m21-ba-lexicalDecision.osexp","C:\Users\ekealey\Desktop","no","mono","no","18","no","white","no","yes","1080","legacy","21","21","C:/Users/ekealey/Desktop/226.csv","xpyriment","Lentiform Loewenfeld","3.3.11","0","None","NA","NA","NA","NA","space","None","1200","NA","NA","NA","NA","39015","1200","2","legacy","1024","2","48000","-16","AB_m21","226","even","NW_S_COMP","FANFIL","1808","141284","138916","135435","40986","NA","NA","NA","NA","NA","139416","NA","NA","NA","138416","NA","138384","1969","141484","NA","NA","NA","139457","1808","1958","NA","NA","140657","140680","138384","139416","139437","morph21_Oliver/Morris","13","22538","22","yes","1920","6"
"250","","56.52173913043478","56.52173913043478","1029.5217391304348","1029.5217391304348","black","no","xpyriment","legacy","legacy","0","208","NA","uniform","NA","NA","NA","0","undefined","0","0","22","22","22","0","22","22","22","NA","0","22","NA","NA","0","22","NA","22","0","22","NA","NA","NA","22","0","0","NA","NA","22","22","22","22","22","23","z","Thu Oct 26 11:32:37 2023","Executes Python code","yes","m21-ba-lexicalDecision.osexp","C:\Users\ekealey\Desktop","no","mono","no","18","no","white","no","yes","1080","legacy","22","22","C:/Users/ekealey/Desktop/226.csv","xpyriment","Lentiform Loewenfeld","3.3.11","0","/","NA","NA","NA","NA","space","/","1141","NA","NA","NA","NA","39015","1141","2","legacy","1024","2","48000","-16","AB_m21","226","even","FILL_NW","DOWED","1808","145381","143069","135435","40986","NA","NA","NA","NA","NA","143569","NA","NA","NA","142568","NA","142539","1969","145631","NA","NA","NA","143611","1808","1958","NA","NA","144753","144777","142539","143569","143590","morph21_Oliver/Morris","13","23679","23","yes","1920","16"
"200","","58.333333333333336","58.333333333333336","1018","1018","black","no","xpyriment","legacy","legacy","0","202","NA","uniform","NA","NA","NA","1","undefined","1","0","23","23","23","0","23","23","23","NA","0","23","NA","NA","0","23","NA","23","0","23","NA","NA","NA","23","0","0","NA","NA","23","23","23","23","23","24","/","Thu Oct 26 11:32:37 2023","Executes Python code","yes","m21-ba-lexicalDecision.osexp","C:\Users\ekealey\Desktop","no","mono","no","18","no","white","no","yes","1080","legacy","23","23","C:/Users/ekealey/Desktop/226.csv","xpyriment","Lentiform Loewenfeld","3.3.11","0","/","NA","NA","NA","NA","space","/","753","NA","NA","NA","NA","39015","753","2","legacy","1024","2","48000","-16","AB_m21","226","even","CW_L","COLLECTOR","1808","150636","147210","149133","40986","NA","NA","NA","NA","NA","147710","NA","NA","NA","146710","NA","146681","1969","150836","NA","NA","NA","147751","1808","1958","NA","NA","148505","148530","146681","147710","147731","morph21_Oliver/Morris","14","24432","24","yes","1920","46"
"300","","60","60","1010.64","1010.64","black","no","xpyriment","legacy","legacy","0","205","NA","uniform","NA","NA","NA","1","undefined","1","0","24","24","24","0","24","24","24","NA","0","24","NA","NA","0","24","NA","24","0","24","NA","NA","NA","24","0","0","NA","NA","24","24","24","24","24","25","z","Thu Oct 26 11:32:37 2023","Executes Python code","yes","m21-ba-lexicalDecision.osexp","C:\Users\ekealey\Desktop","no","mono","no","18","no","white","no","yes","1080","legacy","24","24","C:/Users/ekealey/Desktop/226.csv","xpyriment","Lentiform Loewenfeld","3.3.11","0","z","NA","NA","NA","NA","space","z","834","NA","NA","NA","NA","39015","834","2","legacy","1024","2","48000","-16","AB_m21","226","even","NW_S_SIMP","TILTARY","1808","154379","152378","149133","40986","NA","NA","NA","NA","NA","152878","NA","NA","NA","151877","NA","151846","1969","154679","NA","NA","NA","152918","1808","1958","NA","NA","153752","153776","151846","152878","152898","morph21_Oliver/Morris","15","25266","25","yes","1920","17"
"300","","61.53846153846154","61.53846153846154","1010.1153846153846","1010.1153846153846","black","no","xpyriment","legacy","legacy","0","208","NA","uniform","NA","NA","NA","1","undefined","1","0","25","25","25","0","25","25","25","NA","0","25","NA","NA","0","25","NA","25","0","25","NA","NA","NA","25","0","0","NA","NA","25","25","25","25","25","26","z","Thu Oct 26 11:32:37 2023","Executes Python code","yes","m21-ba-lexicalDecision.osexp","C:\Users\ekealey\Desktop","no","mono","no","18","no","white","no","yes","1080","legacy","25","25","C:/Users/ekealey/Desktop/226.csv","xpyriment","Lentiform Loewenfeld","3.3.11","0","z","NA","NA","NA","NA","space","z","997","NA","NA","NA","NA","39015","997","2","legacy","1024","2","48000","-16","AB_m21","226","even","FILL_NW","TREMP","1808","158411","156246","149133","40986","NA","NA","NA","NA","NA","156746","NA","NA","NA","155745","NA","155716","1969","158712","NA","NA","NA","156787","1808","1958","NA","NA","157785","157808","155716","156746","156767","morph21_Oliver/Morris","16","26263","26","yes","1920","20"
"300","","62.96296296296296","62.96296296296296","997.2592592592592","997.2592592592592","black","no","xpyriment","legacy","legacy","0","202","NA","uniform","NA","NA","NA","1","undefined","1","0","26","26","26","0","26","26","26","NA","0","26","NA","NA","0","26","NA","26","0","26","NA","NA","NA","26","0","0","NA","NA","26","26","26","26","26","27","/","Thu Oct 26 11:32:37 2023","Executes Python code","yes","m21-ba-lexicalDecision.osexp","C:\Users\ekealey\Desktop","no","mono","no","18","no","white","no","yes","1080","legacy","26","26","C:/Users/ekealey/Desktop/226.csv","xpyriment","Lentiform Loewenfeld","3.3.11","0","/","NA","NA","NA","NA","space","/","663","NA","NA","NA","NA","39015","663","2","legacy","1024","2","48000","-16","AB_m21","226","even","CW_L","PROFESSOR","1808","163611","160276","162107","40986","NA","NA","NA","NA","NA","160777","NA","NA","NA","159775","NA","159747","1969","163911","NA","NA","NA","160817","1808","1958","NA","NA","161480","161504","159747","160777","160797","morph21_Oliver/Morris","17","26926","27","yes","1920","47"
"350","","64.28571428571429","64.28571428571429","998.8571428571429","998.8571428571429","black","no","xpyriment","legacy","legacy","0","208","NA","uniform","NA","NA","NA","1","undefined","1","0","27","27","27","0","27","27","27","NA","0","27","NA","NA","0","27","NA","27","0","27","NA","NA","NA","27","0","0","NA","NA","27","27","27","27","27","28","z","Thu Oct 26 11:32:37 2023","Executes Python code","yes","m21-ba-lexicalDecision.osexp","C:\Users\ekealey\Desktop","no","mono","no","18","no","white","no","yes","1080","legacy","27","27","C:/Users/ekealey/Desktop/226.csv","xpyriment","Lentiform Loewenfeld","3.3.11","0","z","NA","NA","NA","NA","space","z","1042","NA","NA","NA","NA","39015","1042","2","legacy","1024","2","48000","-16","AB_m21","226","even","FILL_NW","BLANTH","1808","167716","165506","162107","40986","NA","NA","NA","NA","NA","166006","NA","NA","NA","165003","NA","164976","1969","168066","NA","NA","NA","166046","1808","1958","NA","NA","167089","167113","164975","166006","166026","morph21_Oliver/Morris","18","27968","28","yes","1920","3"
"350","","65.51724137931035","65.51724137931035","991.4137931034483","991.4137931034483","black","no","xpyriment","legacy","legacy","0","202","NA","uniform","NA","NA","NA","1","undefined","1","0","28","28","28","0","28","28","28","NA","0","28","NA","NA","0","28","NA","28","0","28","NA","NA","NA","28","0","0","NA","NA","28","28","28","28","28","29","/","Thu Oct 26 11:32:37 2023","Executes Python code","yes","m21-ba-lexicalDecision.osexp","C:\Users\ekealey\Desktop","no","mono","no","18","no","white","no","yes","1080","legacy","28","28","C:/Users/ekealey/Desktop/226.csv","xpyriment","Lentiform Loewenfeld","3.3.11","0","/","NA","NA","NA","NA","space","/","783","NA","NA","NA","NA","39015","783","2","legacy","1024","2","48000","-16","AB_m21","226","even","CW_L","BOMBER","1808","171580","169628","162107","40986","NA","NA","NA","NA","NA","170129","NA","NA","NA","169127","NA","169102","1969","171930","NA","NA","NA","170169","1808","1958","NA","NA","170952","170977","169102","170129","170149","morph21_Oliver/Morris","19","28751","29","yes","1920","7"
"300","","66.66666666666667","66.66666666666667","986.5666666666667","986.5666666666667","black","no","xpyriment","legacy","legacy","0","205","NA","uniform","NA","NA","NA","1","undefined","1","0","29","29","29","0","29","29","29","NA","0","29","NA","NA","0","29","NA","29","0","29","NA","NA","NA","29","0","0","NA","NA","29","29","29","29","29","30","z","Thu Oct 26 11:32:37 2023","Executes Python code","yes","m21-ba-lexicalDecision.osexp","C:\Users\ekealey\Desktop","no","mono","no","18","no","white","no","yes","1080","legacy","29","29","C:/Users/ekealey/Desktop/226.csv","xpyriment","Lentiform Loewenfeld","3.3.11","0","z","NA","NA","NA","NA","space","z","846","NA","NA","NA","NA","39015","846","2","legacy","1024","2","48000","-16","AB_m21","226","even","NW_S_SIMP","HEIRIC","1808","176998","173477","175494","40986","NA","NA","NA","NA","NA","173977","NA","NA","NA","172977","NA","172948","1969","177299","NA","NA","NA","174018","1808","1958","NA","NA","174864","174890","172948","173977","173998","morph21_Oliver/Morris","20","29597","30","yes","1920","3"
"250","","67.74193548387096","67.74193548387096","982.5806451612904","982.5806451612904","black","no","xpyriment","legacy","legacy","0","201","NA","uniform","NA","NA","NA","1","undefined","1","0","30","30","30","0","30","30","30","NA","0","30","NA","NA","0","30","NA","30","0","30","NA","NA","NA","30","0","0","NA","NA","30","30","30","30","30","31","/","Thu Oct 26 11:32:37 2023","Executes Python code","yes","m21-ba-lexicalDecision.osexp","C:\Users\ekealey\Desktop","no","mono","no","18","no","white","no","yes","1080","legacy","30","30","C:/Users/ekealey/Desktop/226.csv","xpyriment","Lentiform Loewenfeld","3.3.11","0","/","NA","NA","NA","NA","space","/","863","NA","NA","NA","NA","39015","863","2","legacy","1024","2","48000","-16","AB_m21","226","even","CW_S","NOTICEABLE","1808","180908","178876","175494","40986","NA","NA","NA","NA","NA","179376","NA","NA","NA","178375","NA","178347","1969","181158","NA","NA","NA","179417","1808","1958","NA","NA","180281","180304","178346","179376","179397","morph21_Oliver/Morris","21","30460","31","yes","1920","3"
"400","","68.75","68.75","975.96875","975.96875","black","no","xpyriment","legacy","legacy","0","201","NA","uniform","NA","NA","NA","1","undefined","1","0","31","31","31","0","31","31","31","NA","0","31","NA","NA","0","31","NA","31","0","31","NA","NA","NA","31","0","0","NA","NA","31","31","31","31","31","32","/","Thu Oct 26 11:32:37 2023","Executes Python code","yes","m21-ba-lexicalDecision.osexp","C:\Users\ekealey\Desktop","no","mono","no","18","no","white","no","yes","1080","legacy","31","31","C:/Users/ekealey/Desktop/226.csv","xpyriment","Lentiform Loewenfeld","3.3.11","0","/","NA","NA","NA","NA","space","/","771","NA","NA","NA","NA","39015","771","2","legacy","1024","2","48000","-16","AB_m21","226","even","CW_S","DESIGN","1808","184643","182704","175494","40986","NA","NA","NA","NA","NA","183204","NA","NA","NA","182204","NA","182176","1969","185043","NA","NA","NA","183245","1808","1958","NA","NA","184016","184040","182176","183204","183225","morph21_Oliver/Morris","22","31231","32","yes","1920","19"
"300","","69.6969696969697","69.6969696969697","982.060606060606","982.060606060606","black","no","xpyriment","legacy","legacy","0","205","NA","uniform","NA","NA","NA","1","undefined","1","0","32","32","32","0","32","32","32","NA","0","32","NA","NA","0","32","NA","32","0","32","NA","NA","NA","32","0","0","NA","NA","32","32","32","32","32","33","z","Thu Oct 26 11:32:37 2023","Executes Python code","yes","m21-ba-lexicalDecision.osexp","C:\Users\ekealey\Desktop","no","mono","no","18","no","white","no","yes","1080","legacy","32","32","C:/Users/ekealey/Desktop/226.csv","xpyriment","Lentiform Loewenfeld","3.3.11","0","z","NA","NA","NA","NA","space","z","1177","NA","NA","NA","NA","39015","1177","2","legacy","1024","2","48000","-16","AB_m21","226","even","NW_S_SIMP","FEVERIZE","1808","190463","186610","188957","40986","NA","NA","NA","NA","NA","187110","NA","NA","NA","186110","NA","186082","1969","190763","NA","NA","NA","187151","1808","1958","NA","NA","188329","188353","186082","187110","187131","morph21_Oliver/Morris","23","32408","33","yes","1920","24"
"300","","70.58823529411765","70.58823529411765","976.0294117647059","976.0294117647059","black","no","xpyriment","legacy","legacy","0","201","NA","uniform","NA","NA","NA","1","undefined","1","0","33","33","33","0","33","33","33","NA","0","33","NA","NA","0","33","NA","33","0","33","NA","NA","NA","33","0","0","NA","NA","33","33","33","33","33","34","/","Thu Oct 26 11:32:37 2023","Executes Python code","yes","m21-ba-lexicalDecision.osexp","C:\Users\ekealey\Desktop","no","mono","no","18","no","white","no","yes","1080","legacy","33","33","C:/Users/ekealey/Desktop/226.csv","xpyriment","Lentiform Loewenfeld","3.3.11","0","/","NA","NA","NA","NA","space","/","777","NA","NA","NA","NA","39015","777","2","legacy","1024","2","48000","-16","AB_m21","226","even","CW_S","ATTACKER","1808","194283","192338","188957","40986","NA","NA","NA","NA","NA","192838","NA","NA","NA","191837","NA","191807","1969","194583","NA","NA","NA","192879","1808","1958","NA","NA","193657","193680","191807","192838","192859","morph21_Oliver/Morris","24","33185","34","yes","1920","20"
"200","","71.42857142857143","71.42857142857143","978.1142857142858","978.1142857142858","black","no","xpyriment","legacy","legacy","0","203","NA","uniform","NA","NA","NA","1","undefined","1","0","34","34","34","0","34","34","34","NA","0","34","NA","NA","0","34","NA","34","0","34","NA","NA","NA","34","0","0","NA","NA","34","34","34","34","34","35","z","Thu Oct 26 11:32:37 2023","Executes Python code","yes","m21-ba-lexicalDecision.osexp","C:\Users\ekealey\Desktop","no","mono","no","18","no","white","no","yes","1080","legacy","34","34","C:/Users/ekealey/Desktop/226.csv","xpyriment","Lentiform Loewenfeld","3.3.11","0","z","NA","NA","NA","NA","space","z","1049","NA","NA","NA","NA","39015","1049","2","legacy","1024","2","48000","-16","AB_m21","226","even","NW_S_COMP","MELTANGE","1808","198390","196169","188957","40986","NA","NA","NA","NA","NA","196670","NA","NA","NA","195667","NA","195641","1969","198590","NA","NA","NA","196710","1808","1958","NA","NA","197760","197785","195641","196670","196690","morph21_Oliver/Morris","25","34234","35","yes","1920","1"
"300","","72.22222222222223","72.22222222222223","968.25","968.25","black","no","xpyriment","legacy","legacy","0","207","NA","uniform","NA","NA","NA","1","undefined","1","0","35","35","35","0","35","35","35","NA","0","35","NA","NA","0","35","NA","35","0","35","NA","NA","NA","35","0","0","NA","NA","35","35","35","35","35","36","/","Thu Oct 26 11:32:37 2023","Executes Python code","yes","m21-ba-lexicalDecision.osexp","C:\Users\ekealey\Desktop","no","mono","no","18","no","white","no","yes","1080","legacy","35","35","C:/Users/ekealey/Desktop/226.csv","xpyriment","Lentiform Loewenfeld","3.3.11","0","/","NA","NA","NA","NA","space","/","623","NA","NA","NA","NA","39015","623","2","legacy","1024","2","48000","-16","AB_m21","226","even","FILL_W","BOX","1808","203460","200164","201955","40986","NA","NA","NA","NA","NA","200664","NA","NA","NA","199663","NA","199636","1969","203760","NA","NA","NA","200705","1808","1958","NA","NA","201329","201352","199636","200664","200685","morph21_Oliver/Morris","26","34857","36","yes","1920","42"
"350","","72.97297297297297","72.97297297297297","961.7027027027027","961.7027027027027","black","no","xpyriment","legacy","legacy","0","202","NA","uniform","NA","NA","NA","1","undefined","1","0","36","36","36","0","36","36","36","NA","0","36","NA","NA","0","36","NA","36","0","36","NA","NA","NA","36","0","0","NA","NA","36","36","36","36","36","37","/","Thu Oct 26 11:32:37 2023","Executes Python code","yes","m21-ba-lexicalDecision.osexp","C:\Users\ekealey\Desktop","no","mono","no","18","no","white","no","yes","1080","legacy","36","36","C:/Users/ekealey/Desktop/226.csv","xpyriment","Lentiform Loewenfeld","3.3.11","0","/","NA","NA","NA","NA","space","/","726","NA","NA","NA","NA","39015","726","2","legacy","1024","2","48000","-16","AB_m21","226","even","CW_L","RENTER","1808","207230","205332","201955","40986","NA","NA","NA","NA","NA","205833","NA","NA","NA","204831","NA","204802","1969","207581","NA","NA","NA","205874","1808","1958","NA","NA","206601","206626","204802","205833","205854","morph21_Oliver/Morris","27","35583","37","yes","1920","9"
"350","","73.6842105263158","73.6842105263158","960.7631578947369","960.7631578947369","black","no","xpyriment","legacy","legacy","0","202","NA","uniform","NA","NA","NA","1","undefined","1","0","37","37","37","0","37","37","37","NA","0","37","NA","NA","0","37","NA","37","0","37","NA","NA","NA","37","0","0","NA","NA","37","37","37","37","37","38","/","Thu Oct 26 11:32:37 2023","Executes Python code","yes","m21-ba-lexicalDecision.osexp","C:\Users\ekealey\Desktop","no","mono","no","18","no","white","no","yes","1080","legacy","37","37","C:/Users/ekealey/Desktop/226.csv","xpyriment","Lentiform Loewenfeld","3.3.11","0","/","NA","NA","NA","NA","space","/","926","NA","NA","NA","NA","39015","926","2","legacy","1024","2","48000","-16","AB_m21","226","even","CW_L","GUARDING","1808","211221","209124","201955","40986","NA","NA","NA","NA","NA","209626","NA","NA","NA","208623","NA","208598","1969","211571","NA","NA","NA","209666","1808","1958","NA","NA","210592","210616","208598","209625","209646","morph21_Oliver/Morris","28","36509","38","yes","1920","26"
"300","","74.35897435897436","74.35897435897436","961.1282051282051","961.1282051282051","black","no","xpyriment","legacy","legacy","0","204","NA","uniform","NA","NA","NA","1","undefined","1","0","38","38","38","0","38","38","38","NA","0","38","NA","NA","0","38","NA","38","0","38","NA","NA","NA","38","0","0","NA","NA","38","38","38","38","38","39","z","Thu Oct 26 11:32:37 2023","Executes Python code","yes","m21-ba-lexicalDecision.osexp","C:\Users\ekealey\Desktop","no","mono","no","18","no","white","no","yes","1080","legacy","38","38","C:/Users/ekealey/Desktop/226.csv","xpyriment","Lentiform Loewenfeld","3.3.11","0","z","NA","NA","NA","NA","space","z","975","NA","NA","NA","NA","39015","975","2","legacy","1024","2","48000","-16","AB_m21","226","even","NW_L_COMP","ADDMANT","1808","216766","213115","215261","40986","NA","NA","NA","NA","NA","213617","NA","NA","NA","212614","NA","212582","1969","217066","NA","NA","NA","213657","1808","1958","NA","NA","214633","214658","212582","213616","213637","morph21_Oliver/Morris","29","37484","39","yes","1920","13"
"200","","75","75","957.25","957.25","black","no","xpyriment","legacy","legacy","0","208","NA","uniform","NA","NA","NA","1","undefined","1","0","39","39","39","0","39","39","39","NA","0","39","NA","NA","0","39","NA","39","0","39","NA","NA","NA","39","0","0","NA","NA","39","39","39","39","39","40","z","Thu Oct 26 11:32:37 2023","Executes Python code","yes","m21-ba-lexicalDecision.osexp","C:\Users\ekealey\Desktop","no","mono","no","18","no","white","no","yes","1080","legacy","39","39","C:/Users/ekealey/Desktop/226.csv","xpyriment","Lentiform Loewenfeld","3.3.11","0","z","NA","NA","NA","NA","space","z","806","NA","NA","NA","NA","39015","806","2","legacy","1024","2","48000","-16","AB_m21","226","even","FILL_NW","GAIRS","1808","220652","218677","215261","40986","NA","NA","NA","NA","NA","219177","NA","NA","NA","218177","NA","218147","1969","220852","NA","NA","NA","219218","1808","1958","NA","NA","220025","220049","218147","219177","219198","morph21_Oliver/Morris","30","38290","40","yes","1920","23"
"400","","75.60975609756098","75.60975609756098","955.2682926829268","955.2682926829268","black","no","xpyriment","legacy","legacy","0","203","NA","uniform","NA","NA","NA","1","undefined","1","0","40","40","40","0","40","40","40","NA","0","40","NA","NA","0","40","NA","40","0","40","NA","NA","NA","40","0","0","NA","NA","40","40","40","40","40","41","z","Thu Oct 26 11:32:37 2023","Executes Python code","yes","m21-ba-lexicalDecision.osexp","C:\Users\ekealey\Desktop","no","mono","no","18","no","white","no","yes","1080","legacy","40","40","C:/Users/ekealey/Desktop/226.csv","xpyriment","Lentiform Loewenfeld","3.3.11","0","z","NA","NA","NA","NA","space","z","876","NA","NA","NA","NA","39015","876","2","legacy","1024","2","48000","-16","AB_m21","226","even","NW_S_COMP","ARIDILM","1808","224468","222422","215261","40986","NA","NA","NA","NA","NA","222924","NA","NA","NA","221920","NA","221896","1969","224868","NA","NA","NA","222964","1808","1958","NA","NA","223840","223865","221896","222924","222944","morph21_Oliver/Morris","31","39166","41","yes","1920","9"
"250","","76.19047619047619","76.19047619047619","953.047619047619","953.047619047619","black","no","xpyriment","legacy","legacy","0","204","NA","uniform","NA","NA","NA","1","undefined","1","0","41","41","41","0","41","41","41","NA","0","41","NA","NA","0","41","NA","41","0","41","NA","NA","NA","41","0","0","NA","NA","41","41","41","41","41","42","z","Thu Oct 26 11:32:37 2023","Executes Python code","yes","m21-ba-lexicalDecision.osexp","C:\Users\ekealey\Desktop","no","mono","no","18","no","white","no","yes","1080","legacy","41","41","C:/Users/ekealey/Desktop/226.csv","xpyriment","Lentiform Loewenfeld","3.3.11","0","z","NA","NA","NA","NA","space","z","862","NA","NA","NA","NA","39015","862","2","legacy","1024","2","48000","-16","AB_m21","226","even","NW_L_COMP","FREENELS","1808","229958","226420","228453","40986","NA","NA","NA","NA","NA","226921","NA","NA","NA","225918","NA","225887","1969","230208","NA","NA","NA","226962","1808","1958","NA","NA","227824","227849","225887","226921","226942","morph21_Oliver/Morris","32","40028","42","yes","1920","15"
"200","","76.74418604651163","76.74418604651163","956.1162790697674","956.1162790697674","black","no","xpyriment","legacy","legacy","0","206","NA","uniform","NA","NA","NA","1","undefined","1","0","42","42","42","0","42","42","42","NA","0","42","NA","NA","0","42","NA","42","0","42","NA","NA","NA","42","0","0","NA","NA","42","42","42","42","42","43","z","Thu Oct 26 11:32:37 2023","Executes Python code","yes","m21-ba-lexicalDecision.osexp","C:\Users\ekealey\Desktop","no","mono","no","18","no","white","no","yes","1080","legacy","42","42","C:/Users/ekealey/Desktop/226.csv","xpyriment","Lentiform Loewenfeld","3.3.11","0","z","NA","NA","NA","NA","space","z","1085","NA","NA","NA","NA","39015","1085","2","legacy","1024","2","48000","-16","AB_m21","226","even","NW_L_SIMP","TOWERLY","1808","234036","231781","228453","40986","NA","NA","NA","NA","NA","232282","NA","NA","NA","231279","NA","231247","1969","234236","NA","NA","NA","232322","1808","1958","NA","NA","233408","233433","231247","232282","232302","morph21_Oliver/Morris","33","41113","43","yes","1920","15"
"300","","75","75","961.6590909090909","961.6590909090909","black","no","xpyriment","legacy","legacy","0","202","NA","uniform","NA","NA","NA","0","undefined","0","0","43","43","43","0","43","43","43","NA","0","43","NA","NA","0","43","NA","43","0","43","NA","NA","NA","43","0","0","NA","NA","43","43","43","43","43","44","/","Thu Oct 26 11:32:37 2023","Executes Python code","yes","m21-ba-lexicalDecision.osexp","C:\Users\ekealey\Desktop","no","mono","no","18","no","white","no","yes","1080","legacy","43","43","C:/Users/ekealey/Desktop/226.csv","xpyriment","Lentiform Loewenfeld","3.3.11","0","None","NA","NA","NA","NA","space","None","1200","NA","NA","NA","NA","39015","1200","2","legacy","1024","2","48000","-16","AB_m21","226","even","CW_L","DAMPISH","1808","238167","235795","228453","40986","NA","NA","NA","NA","NA","236298","NA","NA","NA","235295","NA","235269","1969","238467","NA","NA","NA","236338","1808","1958","NA","NA","237538","237563","235269","236298","236318","morph21_Oliver/Morris","33","42313","44","yes","1920","28"
"400","","75.55555555555556","75.55555555555556","957.3333333333334","957.3333333333334","black","no","xpyriment","legacy","legacy","0","208","NA","uniform","NA","NA","NA","1","undefined","1","0","44","44","44","0","44","44","44","NA","0","44","NA","NA","0","44","NA","44","0","44","NA","NA","NA","44","0","0","NA","NA","44","44","44","44","44","45","z","Thu Oct 26 11:32:37 2023","Executes Python code","yes","m21-ba-lexicalDecision.osexp","C:\Users\ekealey\Desktop","no","mono","no","18","no","white","no","yes","1080","legacy","44","44","C:/Users/ekealey/Desktop/226.csv","xpyriment","Lentiform Loewenfeld","3.3.11","0","z","NA","NA","NA","NA","space","z","767","NA","NA","NA","NA","39015","767","2","legacy","1024","2","48000","-16","AB_m21","226","even","FILL_NW","FROES","1808","243451","240011","241948","40986","NA","NA","NA","NA","NA","240511","NA","NA","NA","239510","NA","239479","1969","243852","NA","NA","NA","240552","1808","1958","NA","NA","241321","241344","239479","240511","240532","morph21_Oliver/Morris","34","43080","45","yes","1920","21"
"300","","73.91304347826087","73.91304347826087","956.7173913043479","956.7173913043479","black","no","xpyriment","legacy","legacy","0","202","NA","uniform","NA","NA","NA","0","undefined","0","0","45","45","45","0","45","45","45","NA","0","45","NA","NA","0","45","NA","45","0","45","NA","NA","NA","45","0","0","NA","NA","45","45","45","45","45","46","/","Thu Oct 26 11:32:37 2023","Executes Python code","yes","m21-ba-lexicalDecision.osexp","C:\Users\ekealey\Desktop","no","mono","no","18","no","white","no","yes","1080","legacy","45","45","C:/Users/ekealey/Desktop/226.csv","xpyriment","Lentiform Loewenfeld","3.3.11","0","z","NA","NA","NA","NA","space","z","929","NA","NA","NA","NA","39015","929","2","legacy","1024","2","48000","-16","AB_m21","226","even","CW_L","WEEDY","1808","247541","245441","241948","40986","NA","NA","NA","NA","NA","245942","NA","NA","NA","244941","NA","244912","1969","247841","NA","NA","NA","245983","1808","1958","NA","NA","246913","246936","244912","245942","245963","morph21_Oliver/Morris","34","44009","46","yes","1920","48"
"250","","74.46808510638297","74.46808510638297","957.2553191489362","957.2553191489362","black","no","xpyriment","legacy","legacy","0","208","NA","uniform","NA","NA","NA","1","undefined","1","0","46","46","46","0","46","46","46","NA","0","46","NA","NA","0","46","NA","46","0","46","NA","NA","NA","46","0","0","NA","NA","46","46","46","46","46","47","z","Thu Oct 26 11:32:37 2023","Executes Python code","yes","m21-ba-lexicalDecision.osexp","C:\Users\ekealey\Desktop","no","mono","no","18","no","white","no","yes","1080","legacy","46","46","C:/Users/ekealey/Desktop/226.csv","xpyriment","Lentiform Loewenfeld","3.3.11","0","z","NA","NA","NA","NA","space","z","982","NA","NA","NA","NA","39015","982","2","legacy","1024","2","48000","-16","AB_m21","226","even","FILL_NW","PIFTH","1808","251540","249387","241948","40986","NA","NA","NA","NA","NA","249889","NA","NA","NA","248885","NA","248859","1969","251790","NA","NA","NA","249930","1808","1958","NA","NA","250912","250937","248859","249888","249909","morph21_Oliver/Morris","35","44991","47","yes","1920","36"
"250","","75","75","959.5","959.5","black","no","xpyriment","legacy","legacy","0","207","NA","uniform","NA","NA","NA","1","undefined","1","0","47","47","47","0","47","47","47","NA","0","47","NA","NA","0","47","NA","47","0","47","NA","NA","NA","47","0","0","NA","NA","47","47","47","47","47","48","/","Thu Oct 26 11:32:37 2023","Executes Python code","yes","m21-ba-lexicalDecision.osexp","C:\Users\ekealey\Desktop","no","mono","no","18","no","white","no","yes","1080","legacy","47","47","C:/Users/ekealey/Desktop/226.csv","xpyriment","Lentiform Loewenfeld","3.3.11","0","/","NA","NA","NA","NA","space","/","1065","NA","NA","NA","NA","39015","1065","2","legacy","1024","2","48000","-16","AB_m21","226","even","FILL_W","SOUGHT","1808","257085","253346","255579","40986","NA","NA","NA","NA","NA","253847","NA","NA","NA","252844","NA","252819","1969","257335","NA","NA","NA","253887","1808","1958","NA","NA","254953","254976","252819","253847","253867","morph21_Oliver/Morris","36","46056","48","yes","1920","40"
"250","","75.51020408163265","75.51020408163265","964.1836734693877","964.1836734693877","black","no","xpyriment","legacy","legacy","0","204","NA","uniform","NA","NA","NA","1","undefined","1","0","48","48","48","0","48","48","48","NA","0","48","NA","NA","0","48","NA","48","0","48","NA","NA","NA","48","0","0","NA","NA","48","48","48","48","48","49","z","Thu Oct 26 11:32:37 2023","Executes Python code","yes","m21-ba-lexicalDecision.osexp","C:\Users\ekealey\Desktop","no","mono","no","18","no","white","no","yes","1080","legacy","48","48","C:/Users/ekealey/Desktop/226.csv","xpyriment","Lentiform Loewenfeld","3.3.11","0","z","NA","NA","NA","NA","space","z","1189","NA","NA","NA","NA","39015","1189","2","legacy","1024","2","48000","-16","AB_m21","226","even","NW_L_COMP","STIRANGE","1808","261253","258893","255579","40986","NA","NA","NA","NA","NA","259395","NA","NA","NA","258391","NA","258361","1969","261503","NA","NA","NA","259435","1808","1958","NA","NA","260624","260648","258361","259394","259415","morph21_Oliver/Morris","37","47245","49","yes","1920","1"
"300","","76","76","959.42","959.42","black","no","xpyriment","legacy","legacy","0","202","NA","uniform","NA","NA","NA","1","undefined","1","0","49","49","49","0","49","49","49","NA","0","49","NA","NA","0","49","NA","49","0","49","NA","NA","NA","49","0","0","NA","NA","49","49","49","49","49","50","/","Thu Oct 26 11:32:37 2023","Executes Python code","yes","m21-ba-lexicalDecision.osexp","C:\Users\ekealey\Desktop","no","mono","no","18","no","white","no","yes","1080","legacy","49","49","C:/Users/ekealey/Desktop/226.csv","xpyriment","Lentiform Loewenfeld","3.3.11","0","/","NA","NA","NA","NA","space","/","726","NA","NA","NA","NA","39015","726","2","legacy","1024","2","48000","-16","AB_m21","226","even","CW_L","MADNESS","1808","264939","263044","255579","40986","NA","NA","NA","NA","NA","263544","NA","NA","NA","262543","NA","262512","1969","265239","NA","NA","NA","263585","1808","1958","NA","NA","264312","264335","262512","263544","263565","morph21_Oliver/Morris","38","47971","50","yes","1920","41"
"200","","76.47058823529412","76.47058823529412","951.7450980392157","951.7450980392157","black","no","xpyriment","legacy","legacy","0","207","NA","uniform","NA","NA","NA","1","undefined","1","0","50","50","50","0","50","50","50","NA","0","50","NA","NA","0","50","NA","50","0","50","NA","NA","NA","50","0","0","NA","NA","50","50","50","50","50","51","/","Thu Oct 26 11:32:37 2023","Executes Python code","yes","m21-ba-lexicalDecision.osexp","C:\Users\ekealey\Desktop","no","mono","no","18","no","white","no","yes","1080","legacy","50","50","C:/Users/ekealey/Desktop/226.csv","xpyriment","Lentiform Loewenfeld","3.3.11","0","/","NA","NA","NA","NA","space","/","568","NA","NA","NA","NA","39015","568","2","legacy","1024","2","48000","-16","AB_m21","226","even","FILL_W","TAX","1808","270038","266795","268534","40986","NA","NA","NA","NA","NA","267295","NA","NA","NA","266293","NA","266267","1969","270238","NA","NA","NA","267336","1808","1958","NA","NA","267905","267929","266267","267295","267316","morph21_Oliver/Morris","39","48539","51","yes","1920","45"
"250","","75","75","948.3846153846154","948.3846153846154","black","no","xpyriment","legacy","legacy","0","201","NA","uniform","NA","NA","NA","0","undefined","0","0","51","51","51","0","51","51","51","NA","0","51","NA","NA","0","51","NA","51","0","51","NA","NA","NA","51","0","0","NA","NA","51","51","51","51","51","52","/","Thu Oct 26 11:32:37 2023","Executes Python code","yes","m21-ba-lexicalDecision.osexp","C:\Users\ekealey\Desktop","no","mono","no","18","no","white","no","yes","1080","legacy","51","51","C:/Users/ekealey/Desktop/226.csv","xpyriment","Lentiform Loewenfeld","3.3.11","0","z","NA","NA","NA","NA","space","z","777","NA","NA","NA","NA","39015","777","2","legacy","1024","2","48000","-16","AB_m21","226","even","CW_S","HUGELY","1808","273748","271801","268534","40986","NA","NA","NA","NA","NA","272302","NA","NA","NA","271300","NA","271273","1969","273999","NA","NA","NA","272343","1808","1958","NA","NA","273121","273145","271273","272302","272323","morph21_Oliver/Morris","39","49316","52","yes","1920","35"
"350","","75.47169811320755","75.47169811320755","942.4716981132076","942.4716981132076","black","no","xpyriment","legacy","legacy","0","202","NA","uniform","NA","NA","NA","1","undefined","1","0","52","52","52","0","52","52","52","NA","0","52","NA","NA","0","52","NA","52","0","52","NA","NA","NA","52","0","0","NA","NA","52","52","52","52","52","53","/","Thu Oct 26 11:32:37 2023","Executes Python code","yes","m21-ba-lexicalDecision.osexp","C:\Users\ekealey\Desktop","no","mono","no","18","no","white","no","yes","1080","legacy","52","52","C:/Users/ekealey/Desktop/226.csv","xpyriment","Lentiform Loewenfeld","3.3.11","0","/","NA","NA","NA","NA","space","/","635","NA","NA","NA","NA","39015","635","2","legacy","1024","2","48000","-16","AB_m21","226","even","CW_L","FEEDER","1808","277357","275551","268534","40986","NA","NA","NA","NA","NA","276052","NA","NA","NA","275050","NA","275023","1969","277707","NA","NA","NA","276093","1808","1958","NA","NA","276729","276752","275022","276052","276073","morph21_Oliver/Morris","40","49951","53","yes","1920","14"
"400","","75.92592592592592","75.92592592592592","940.6666666666666","940.6666666666666","black","no","xpyriment","legacy","legacy","0","206","NA","uniform","NA","NA","NA","1","undefined","1","0","53","53","53","0","53","53","53","NA","0","53","NA","NA","0","53","NA","53","0","53","NA","NA","NA","53","0","0","NA","NA","53","53","53","53","53","54","z","Thu Oct 26 11:32:37 2023","Executes Python code","yes","m21-ba-lexicalDecision.osexp","C:\Users\ekealey\Desktop","no","mono","no","18","no","white","no","yes","1080","legacy","53","53","C:/Users/ekealey/Desktop/226.csv","xpyriment","Lentiform Loewenfeld","3.3.11","0","z","NA","NA","NA","NA","space","z","845","NA","NA","NA","NA","39015","845","2","legacy","1024","2","48000","-16","AB_m21","226","even","NW_L_SIMP","VALIDER","1808","282780","279259","281275","40986","NA","NA","NA","NA","NA","279761","NA","NA","NA","278757","NA","278732","1969","283180","NA","NA","NA","279802","1808","1958","NA","NA","280648","280672","278732","279761","279782","morph21_Oliver/Morris","41","50796","54","yes","1920","23"
"200","","76.36363636363636","76.36363636363636","935.8363636363637","935.8363636363637","black","no","xpyriment","legacy","legacy","0","205","NA","uniform","NA","NA","NA","1","undefined","1","0","54","54","54","0","54","54","54","NA","0","54","NA","NA","0","54","NA","54","0","54","NA","NA","NA","54","0","0","NA","NA","54","54","54","54","54","55","z","Thu Oct 26 11:32:37 2023","Executes Python code","yes","m21-ba-lexicalDecision.osexp","C:\Users\ekealey\Desktop","no","mono","no","18","no","white","no","yes","1080","legacy","54","54","C:/Users/ekealey/Desktop/226.csv","xpyriment","Lentiform Loewenfeld","3.3.11","0","z","NA","NA","NA","NA","space","z","675","NA","NA","NA","NA","39015","675","2","legacy","1024","2","48000","-16","AB_m21","226","even","NW_S_SIMP","GUMFUL","1808","286604","284757","281275","40986","NA","NA","NA","NA","NA","285259","NA","NA","NA","284256","NA","284225","1969","286804","NA","NA","NA","285300","1808","1958","NA","NA","285976","286000","284225","285259","285280","morph21_Oliver/Morris","42","51471","55","yes","1920","2"
"200","","75","75","937.5892857142857","937.5892857142857","black","no","xpyriment","legacy","legacy","0","201","NA","uniform","NA","NA","NA","0","undefined","0","0","55","55","55","0","55","55","55","NA","0","55","NA","NA","0","55","NA","55","0","55","NA","NA","NA","55","0","0","NA","NA","55","55","55","55","55","56","/","Thu Oct 26 11:32:37 2023","Executes Python code","yes","m21-ba-lexicalDecision.osexp","C:\Users\ekealey\Desktop","no","mono","no","18","no","white","no","yes","1080","legacy","55","55","C:/Users/ekealey/Desktop/226.csv","xpyriment","Lentiform Loewenfeld","3.3.11","0","z","NA","NA","NA","NA","space","z","1034","NA","NA","NA","NA","39015","1034","2","legacy","1024","2","48000","-16","AB_m21","226","even","CW_S","THRUSTER","1808","290596","288391","281275","40986","NA","NA","NA","NA","NA","288892","NA","NA","NA","287890","NA","287865","1969","290796","NA","NA","NA","288933","1808","1958","NA","NA","289968","289992","287865","288892","288913","morph21_Oliver/Morris","42","52505","56","yes","1920","24"
"200","","75.43859649122807","75.43859649122807","931.6140350877193","931.6140350877193","black","no","xpyriment","legacy","legacy","0","201","NA","uniform","NA","NA","NA","1","undefined","1","0","56","56","56","0","56","56","56","NA","0","56","NA","NA","0","56","NA","56","0","56","NA","NA","NA","56","0","0","NA","NA","56","56","56","56","56","57","/","Thu Oct 26 11:32:37 2023","Executes Python code","yes","m21-ba-lexicalDecision.osexp","C:\Users\ekealey\Desktop","no","mono","no","18","no","white","no","yes","1080","legacy","56","56","C:/Users/ekealey/Desktop/226.csv","xpyriment","Lentiform Loewenfeld","3.3.11","0","/","NA","NA","NA","NA","space","/","597","NA","NA","NA","NA","39015","597","2","legacy","1024","2","48000","-16","AB_m21","226","even","CW_S","LOCALLY","1808","295635","292365","294132","40986","NA","NA","NA","NA","NA","292866","NA","NA","NA","291864","NA","291834","1969","295835","NA","NA","NA","292906","1808","1958","NA","NA","293504","293529","291834","292866","292886","morph21_Oliver/Morris","43","53102","57","yes","1920","37"
"200","","75.86206896551724","75.86206896551724","926.4137931034483","926.4137931034483","black","no","xpyriment","legacy","legacy","0","208","NA","uniform","NA","NA","NA","1","undefined","1","0","57","57","57","0","57","57","57","NA","0","57","NA","NA","0","57","NA","57","0","57","NA","NA","NA","57","0","0","NA","NA","57","57","57","57","57","58","z","Thu Oct 26 11:32:37 2023","Executes Python code","yes","m21-ba-lexicalDecision.osexp","C:\Users\ekealey\Desktop","no","mono","no","18","no","white","no","yes","1080","legacy","57","57","C:/Users/ekealey/Desktop/226.csv","xpyriment","Lentiform Loewenfeld","3.3.11","0","z","NA","NA","NA","NA","space","z","630","NA","NA","NA","NA","39015","630","2","legacy","1024","2","48000","-16","AB_m21","226","even","FILL_NW","CINDS","1808","299190","297387","294132","40986","NA","NA","NA","NA","NA","297889","NA","NA","NA","296886","NA","296850","1969","299390","NA","NA","NA","297930","1808","1958","NA","NA","298560","298585","296850","297889","297910","morph21_Oliver/Morris","44","53732","58","yes","1920","6"
"350","","76.27118644067797","76.27118644067797","922.8983050847457","922.8983050847457","black","no","xpyriment","legacy","legacy","0","203","NA","uniform","NA","NA","NA","1","undefined","1","0","58","58","58","0","58","58","58","NA","0","58","NA","NA","0","58","NA","58","0","58","NA","NA","NA","58","0","0","NA","NA","58","58","58","58","58","59","z","Thu Oct 26 11:32:37 2023","Executes Python code","yes","m21-ba-lexicalDecision.osexp","C:\Users\ekealey\Desktop","no","mono","no","18","no","white","no","yes","1080","legacy","58","58","C:/Users/ekealey/Desktop/226.csv","xpyriment","Lentiform Loewenfeld","3.3.11","0","z","NA","NA","NA","NA","space","z","719","NA","NA","NA","NA","39015","719","2","legacy","1024","2","48000","-16","AB_m21","226","even","NW_S_COMP","FIENDILM","1808","302853","300964","294132","40986","NA","NA","NA","NA","NA","301465","NA","NA","NA","300464","NA","300438","1969","303203","NA","NA","NA","301505","1808","1958","NA","NA","302224","302248","300438","301465","301485","morph21_Oliver/Morris","45","54451","59","yes","1920","24"
"400","","76.66666666666667","76.66666666666667","919.1","919.1","black","no","xpyriment","legacy","legacy","0","202","NA","uniform","NA","NA","NA","1","undefined","1","0","59","59","59","0","59","59","59","NA","0","59","NA","NA","0","59","NA","59","0","59","NA","NA","NA","59","0","0","NA","NA","59","59","59","59","59","60","/","Thu Oct 26 11:32:37 2023","Executes Python code","yes","m21-ba-lexicalDecision.osexp","C:\Users\ekealey\Desktop","no","mono","no","18","no","white","no","yes","1080","legacy","59","59","C:/Users/ekealey/Desktop/226.csv","xpyriment","Lentiform Loewenfeld","3.3.11","0","/","NA","NA","NA","NA","space","/","695","NA","NA","NA","NA","39015","695","2","legacy","1024","2","48000","-16","AB_m21","226","even","CW_L","SHAPELY","1808","308154","304788","306651","40986","NA","NA","NA","NA","NA","305287","NA","NA","NA","304288","NA","304263","1969","308555","NA","NA","NA","305329","1808","1958","NA","NA","306025","306048","304263","305287","305309","morph21_Oliver/Morris","46","55146","60","yes","1920","35"
"200","","77.04918032786885","77.04918032786885","915.4426229508197","915.4426229508197","black","no","xpyriment","legacy","legacy","0","201","NA","uniform","NA","NA","NA","1","undefined","1","0","60","60","60","0","60","60","60","NA","0","60","NA","NA","0","60","NA","60","0","60","NA","NA","NA","60","0","0","NA","NA","60","60","60","60","60","61","/","Thu Oct 26 11:32:37 2023","Executes Python code","yes","m21-ba-lexicalDecision.osexp","C:\Users\ekealey\Desktop","no","mono","no","18","no","white","no","yes","1080","legacy","60","60","C:/Users/ekealey/Desktop/226.csv","xpyriment","Lentiform Loewenfeld","3.3.11","0","/","NA","NA","NA","NA","space","/","696","NA","NA","NA","NA","39015","696","2","legacy","1024","2","48000","-16","AB_m21","226","even","CW_S","ANGELIC","1808","311980","310115","306651","40986","NA","NA","NA","NA","NA","310615","NA","NA","NA","309614","NA","309580","1969","312181","NA","NA","NA","310656","1808","1958","NA","NA","311353","311377","309580","310615","310636","morph21_Oliver/Morris","47","55842","61","yes","1920","25"
"200","","77.41935483870968","77.41935483870968","914.1774193548387","914.1774193548387","black","no","xpyriment","legacy","legacy","0","203","NA","uniform","NA","NA","NA","1","undefined","1","0","61","61","61","0","61","61","61","NA","0","61","NA","NA","0","61","NA","61","0","61","NA","NA","NA","61","0","0","NA","NA","61","61","61","61","61","62","z","Thu Oct 26 11:32:37 2023","Executes Python code","yes","m21-ba-lexicalDecision.osexp","C:\Users\ekealey\Desktop","no","mono","no","18","no","white","no","yes","1080","legacy","61","61","C:/Users/ekealey/Desktop/226.csv","xpyriment","Lentiform Loewenfeld","3.3.11","0","z","NA","NA","NA","NA","space","z","837","NA","NA","NA","NA","39015","837","2","legacy","1024","2","48000","-16","AB_m21","226","even","NW_S_COMP","ADOPTISH","1808","315732","313726","306651","40986","NA","NA","NA","NA","NA","314227","NA","NA","NA","313225","NA","313200","1969","315933","NA","NA","NA","314267","1808","1958","NA","NA","315104","315129","313200","314227","314247","morph21_Oliver/Morris","48","56679","62","yes","1920","19"
"350","","77.77777777777777","77.77777777777777","915.047619047619","915.047619047619","black","no","xpyriment","legacy","legacy","0","206","NA","uniform","NA","NA","NA","1","undefined","1","0","62","62","62","0","62","62","62","NA","0","62","NA","NA","0","62","NA","62","0","62","NA","NA","NA","62","0","0","NA","NA","62","62","62","62","62","63","z","Thu Oct 26 11:32:37 2023","Executes Python code","yes","m21-ba-lexicalDecision.osexp","C:\Users\ekealey\Desktop","no","mono","no","18","no","white","no","yes","1080","legacy","62","62","C:/Users/ekealey/Desktop/226.csv","xpyriment","Lentiform Loewenfeld","3.3.11","0","z","NA","NA","NA","NA","space","z","969","NA","NA","NA","NA","39015","969","2","legacy","1024","2","48000","-16","AB_m21","226","even","NW_L_SIMP","CRITICANCE","1808","321134","317488","319630","40986","NA","NA","NA","NA","NA","317990","NA","NA","NA","316987","NA","316962","1969","321484","NA","NA","NA","318030","1808","1958","NA","NA","319000","319026","316962","317990","318010","morph21_Oliver/Morris","49","57648","63","yes","1920","22"
"200","","78.125","78.125","916.375","916.375","black","no","xpyriment","legacy","legacy","0","205","NA","uniform","NA","NA","NA","1","undefined","1","0","63","63","63","0","63","63","63","NA","0","63","NA","NA","0","63","NA","63","0","63","NA","NA","NA","63","0","0","NA","NA","63","63","63","63","63","64","z","Thu Oct 26 11:32:37 2023","Executes Python code","yes","m21-ba-lexicalDecision.osexp","C:\Users\ekealey\Desktop","no","mono","no","18","no","white","no","yes","1080","legacy","63","63","C:/Users/ekealey/Desktop/226.csv","xpyriment","Lentiform Loewenfeld","3.3.11","0","z","NA","NA","NA","NA","space","z","1000","NA","NA","NA","NA","39015","1000","2","legacy","1024","2","48000","-16","AB_m21","226","even","NW_S_SIMP","JAWLY","1808","325229","323058","319630","40986","NA","NA","NA","NA","NA","323559","NA","NA","NA","322556","NA","322532","1969","325429","NA","NA","NA","323600","1808","1958","NA","NA","324600","324625","322532","323559","323580","morph21_Oliver/Morris","50","58648","64","yes","1920","7"
"250","","78.46153846153847","78.46153846153847","912.4769230769231","912.4769230769231","black","no","xpyriment","legacy","legacy","0","201","NA","uniform","NA","NA","NA","1","undefined","1","0","64","64","64","0","64","64","64","NA","0","64","NA","NA","0","64","NA","64","0","64","NA","NA","NA","64","0","0","NA","NA","64","64","64","64","64","65","/","Thu Oct 26 11:32:37 2023","Executes Python code","yes","m21-ba-lexicalDecision.osexp","C:\Users\ekealey\Desktop","no","mono","no","18","no","white","no","yes","1080","legacy","64","64","C:/Users/ekealey/Desktop/226.csv","xpyriment","Lentiform Loewenfeld","3.3.11","0","/","NA","NA","NA","NA","space","/","663","NA","NA","NA","NA","39015","663","2","legacy","1024","2","48000","-16","AB_m21","226","even","CW_S","PEAKING","1808","328867","327034","319630","40986","NA","NA","NA","NA","NA","327535","NA","NA","NA","326534","NA","326507","1969","329118","NA","NA","NA","327576","1808","1958","NA","NA","328240","328264","326507","327535","327556","morph21_Oliver/Morris","51","59311","65","yes","1920","28"
"300","","78.78787878787878","78.78787878787878","915.2272727272727","915.2272727272727","black","no","xpyriment","legacy","legacy","0","206","NA","uniform","NA","NA","NA","1","undefined","1","0","65","65","65","0","65","65","65","NA","0","65","NA","NA","0","65","NA","65","0","65","NA","NA","NA","65","0","0","NA","NA","65","65","65","65","65","66","z","Thu Oct 26 11:32:37 2023","Executes Python code","yes","m21-ba-lexicalDecision.osexp","C:\Users\ekealey\Desktop","no","mono","no","18","no","white","no","yes","1080","legacy","65","65","C:/Users/ekealey/Desktop/226.csv","xpyriment","Lentiform Loewenfeld","3.3.11","0","z","NA","NA","NA","NA","space","z","1094","NA","NA","NA","NA","39015","1094","2","legacy","1024","2","48000","-16","AB_m21","226","even","NW_L_SIMP","TAXFUL","1808","334453","330685","332947","40986","NA","NA","NA","NA","NA","331185","NA","NA","NA","330185","NA","330160","1969","334753","NA","NA","NA","331226","1808","1958","NA","NA","332321","332344","330160","331185","331206","morph21_Oliver/Morris","52","60405","66","yes","1920","6"
"350","","77.61194029850746","77.61194029850746","919.4776119402985","919.4776119402985","black","no","xpyriment","legacy","legacy","0","201","NA","uniform","NA","NA","NA","0","undefined","0","0","66","66","66","0","66","66","66","NA","0","66","NA","NA","0","66","NA","66","0","66","NA","NA","NA","66","0","0","NA","NA","66","66","66","66","66","67","/","Thu Oct 26 11:32:37 2023","Executes Python code","yes","m21-ba-lexicalDecision.osexp","C:\Users\ekealey\Desktop","no","mono","no","18","no","white","no","yes","1080","legacy","66","66","C:/Users/ekealey/Desktop/226.csv","xpyriment","Lentiform Loewenfeld","3.3.11","0","None","NA","NA","NA","NA","space","None","1200","NA","NA","NA","NA","39015","1200","2","legacy","1024","2","48000","-16","AB_m21","226","even","CW_S","STRANGENESS","1808","338719","336349","332947","40986","NA","NA","NA","NA","NA","336850","NA","NA","NA","335848","NA","335818","1969","339069","NA","NA","NA","336891","1808","1958","NA","NA","338091","338115","335818","336850","336871","morph21_Oliver/Morris","52","61605","67","yes","1920","46"
"400","","77.94117647058823","77.94117647058823","915.7352941176471","915.7352941176471","black","no","xpyriment","legacy","legacy","0","206","NA","uniform","NA","NA","NA","1","undefined","1","0","67","67","67","0","67","67","67","NA","0","67","NA","NA","0","67","NA","67","0","67","NA","NA","NA","67","0","0","NA","NA","67","67","67","67","67","68","z","Thu Oct 26 11:32:37 2023","Executes Python code","yes","m21-ba-lexicalDecision.osexp","C:\Users\ekealey\Desktop","no","mono","no","18","no","white","no","yes","1080","legacy","67","67","C:/Users/ekealey/Desktop/226.csv","xpyriment","Lentiform Loewenfeld","3.3.11","0","z","NA","NA","NA","NA","space","z","665","NA","NA","NA","NA","39015","665","2","legacy","1024","2","48000","-16","AB_m21","226","even","NW_L_SIMP","CLASSOUS","1808","342500","340664","332947","40986","NA","NA","NA","NA","NA","341165","NA","NA","NA","340162","NA","340136","1969","342900","NA","NA","NA","341206","1808","1958","NA","NA","341872","341897","340136","341165","341186","morph21_Oliver/Morris","53","62270","68","yes","1920","18"
"250","","78.26086956521739","78.26086956521739","916.9710144927536","916.9710144927536","black","no","xpyriment","legacy","legacy","0","201","NA","uniform","NA","NA","NA","1","undefined","1","0","68","68","68","0","68","68","68","NA","0","68","NA","NA","0","68","NA","68","0","68","NA","NA","NA","68","0","0","NA","NA","68","68","68","68","68","69","/","Thu Oct 26 11:32:37 2023","Executes Python code","yes","m21-ba-lexicalDecision.osexp","C:\Users\ekealey\Desktop","no","mono","no","18","no","white","no","yes","1080","legacy","68","68","C:/Users/ekealey/Desktop/226.csv","xpyriment","Lentiform Loewenfeld","3.3.11","0","/","NA","NA","NA","NA","space","/","1001","NA","NA","NA","NA","39015","1001","2","legacy","1024","2","48000","-16","AB_m21","226","even","CW_S","HARMLESS","1808","348139","344464","346635","40986","NA","NA","NA","NA","NA","344966","NA","NA","NA","343963","NA","343936","1969","348389","NA","NA","NA","345006","1808","1958","NA","NA","346008","346032","343936","344966","344986","morph21_Oliver/Morris","54","63271","69","yes","1920","29"
"250","","77.14285714285714","77.14285714285714","921.0142857142857","921.0142857142857","black","no","xpyriment","legacy","legacy","0","208","NA","uniform","NA","NA","NA","0","undefined","0","0","69","69","69","0","69","69","69","NA","0","69","NA","NA","0","69","NA","69","0","69","NA","NA","NA","69","0","0","NA","NA","69","69","69","69","69","70","z","Thu Oct 26 11:32:37 2023","Executes Python code","yes","m21-ba-lexicalDecision.osexp","C:\Users\ekealey\Desktop","no","mono","no","18","no","white","no","yes","1080","legacy","69","69","C:/Users/ekealey/Desktop/226.csv","xpyriment","Lentiform Loewenfeld","3.3.11","0","None","NA","NA","NA","NA","space","None","1200","NA","NA","NA","NA","39015","1200","2","legacy","1024","2","48000","-16","AB_m21","226","even","FILL_NW","LOLDS","1808","352311","349941","346635","40986","NA","NA","NA","NA","NA","350441","NA","NA","NA","349440","NA","349408","1969","352561","NA","NA","NA","350482","1808","1958","NA","NA","351682","351707","349408","350441","350462","morph21_Oliver/Morris","54","64471","70","yes","1920","34"
"300","","77.46478873239437","77.46478873239437","918.0422535211268","918.0422535211268","black","no","xpyriment","legacy","legacy","0","204","NA","uniform","NA","NA","NA","1","undefined","1","0","70","70","70","0","70","70","70","NA","0","70","NA","NA","0","70","NA","70","0","70","NA","NA","NA","70","0","0","NA","NA","70","70","70","70","70","71","z","Thu Oct 26 11:32:37 2023","Executes Python code","yes","m21-ba-lexicalDecision.osexp","C:\Users\ekealey\Desktop","no","mono","no","18","no","white","no","yes","1080","legacy","70","70","C:/Users/ekealey/Desktop/226.csv","xpyriment","Lentiform Loewenfeld","3.3.11","0","z","NA","NA","NA","NA","space","z","710","NA","NA","NA","NA","39015","710","2","legacy","1024","2","48000","-16","AB_m21","226","even","NW_L_COMP","SHEETEL","1808","355987","354108","346635","40986","NA","NA","NA","NA","NA","354608","NA","NA","NA","353607","NA","353579","1969","356287","NA","NA","NA","354649","1808","1958","NA","NA","355360","355384","353579","354608","354629","morph21_Oliver/Morris","55","65181","71","yes","1920","5"
"350","","77.77777777777777","77.77777777777777","913.6527777777778","913.6527777777778","black","no","xpyriment","legacy","legacy","0","201","NA","uniform","NA","NA","NA","1","undefined","1","0","71","71","71","0","71","71","71","NA","0","71","NA","NA","0","71","NA","71","0","71","NA","NA","NA","71","0","0","NA","NA","71","71","71","71","71","72","/","Thu Oct 26 11:32:37 2023","Executes Python code","yes","m21-ba-lexicalDecision.osexp","C:\Users\ekealey\Desktop","no","mono","no","18","no","white","no","yes","1080","legacy","71","71","C:/Users/ekealey/Desktop/226.csv","xpyriment","Lentiform Loewenfeld","3.3.11","0","/","NA","NA","NA","NA","space","/","602","NA","NA","NA","NA","39015","602","2","legacy","1024","2","48000","-16","AB_m21","226","even","CW_S","BOSSY","1808","361094","357816","359589","40986","NA","NA","NA","NA","NA","358316","NA","NA","NA","357316","NA","357290","1969","361444","NA","NA","NA","358357","1808","1958","NA","NA","358960","358985","357290","358316","358337","morph21_Oliver/Morris","56","65783","72","yes","1920","49"
"400","","78.08219178082192","78.08219178082192","911.917808219178","911.917808219178","black","no","xpyriment","legacy","legacy","0","202","NA","uniform","NA","NA","NA","1","undefined","1","0","72","72","72","0","72","72","72","NA","0","72","NA","NA","0","72","NA","72","0","72","NA","NA","NA","72","0","0","NA","NA","72","72","72","72","72","73","/","Thu Oct 26 11:32:37 2023","Executes Python code","yes","m21-ba-lexicalDecision.osexp","C:\Users\ekealey\Desktop","no","mono","no","18","no","white","no","yes","1080","legacy","72","72","C:/Users/ekealey/Desktop/226.csv","xpyriment","Lentiform Loewenfeld","3.3.11","0","/","NA","NA","NA","NA","space","/","787","NA","NA","NA","NA","39015","787","2","legacy","1024","2","48000","-16","AB_m21","226","even","CW_L","CONDUCTOR","1808","364957","362999","359589","40986","NA","NA","NA","NA","NA","363499","NA","NA","NA","362498","NA","362466","1969","365357","NA","NA","NA","363540","1808","1958","NA","NA","364328","364352","362466","363499","363520","morph21_Oliver/Morris","57","66570","73","yes","1920","44"
"200","","78.37837837837837","78.37837837837837","908.3243243243244","908.3243243243244","black","no","xpyriment","legacy","legacy","0","207","NA","uniform","NA","NA","NA","1","undefined","1","0","73","73","73","0","73","73","73","NA","0","73","NA","NA","0","73","NA","73","0","73","NA","NA","NA","73","0","0","NA","NA","73","73","73","73","73","74","/","Thu Oct 26 11:32:37 2023","Executes Python code","yes","m21-ba-lexicalDecision.osexp","C:\Users\ekealey\Desktop","no","mono","no","18","no","white","no","yes","1080","legacy","73","73","C:/Users/ekealey/Desktop/226.csv","xpyriment","Lentiform Loewenfeld","3.3.11","0","/","NA","NA","NA","NA","space","/","646","NA","NA","NA","NA","39015","646","2","legacy","1024","2","48000","-16","AB_m21","226","even","FILL_W","TEST","1808","368725","366909","359589","40986","NA","NA","NA","NA","NA","367409","NA","NA","NA","366408","NA","366379","1969","368925","NA","NA","NA","367449","1808","1958","NA","NA","368096","368120","366379","367409","367429","morph21_Oliver/Morris","58","67216","74","yes","1920","47"
"250","","78.66666666666667","78.66666666666667","908.1733333333333","908.1733333333333","black","no","xpyriment","legacy","legacy","0","206","NA","uniform","NA","NA","NA","undefined","undefined","1","0","74","74","74","0","74","74","74","NA","0","74","NA","NA","0","74","NA","74","0","74","NA","NA","NA","74","0","0","NA","NA","74","74","74","74","74","75","z","Thu Oct 26 11:32:37 2023","Executes Python code","yes","m21-ba-lexicalDecision.osexp","C:\Users\ekealey\Desktop","no","mono","no","18","no","white","no","yes","1080","legacy","74","74","C:/Users/ekealey/Desktop/226.csv","xpyriment","Lentiform Loewenfeld","3.3.11","0","space","space","NA","NA","NA","space","z","5949","5949","NA","NA","NA","39015","897","2","legacy","1024","2","48000","-16","AB_m21","226","even","NW_L_SIMP","SMOOTHFUL","1808","374045","370475","372540","40986","374298","NA","NA","NA","NA","370975","NA","NA","NA","369975","NA","369943","1969","380248","NA","NA","NA","371015","1808","1958","NA","NA","371913","371936","369942","370975","370995","morph21_Oliver/Morris","59","68113","75","yes","1920","19"
"350","","78.94736842105263","78.94736842105263","905.5657894736842","905.5657894736842","black","no","xpyriment","legacy","legacy","0","205","NA","uniform","NA","NA","NA","1","undefined","1","0","75","75","75","0","75","75","75","NA","0","75","NA","NA","0","75","NA","75","0","75","NA","NA","NA","75","0","0","NA","NA","75","75","75","75","75","76","z","Thu Oct 26 11:32:37 2023","Executes Python code","yes","m21-ba-lexicalDecision.osexp","C:\Users\ekealey\Desktop","no","mono","no","18","no","white","no","yes","1080","legacy","75","75","C:/Users/ekealey/Desktop/226.csv","xpyriment","Lentiform Loewenfeld","3.3.11","0","z","space","NA","NA","NA","space","z","710","5949","NA","NA","NA","39015","710","2","legacy","1024","2","48000","-16","AB_m21","226","even","NW_S_SIMP","BASKORY","1808","383716","381837","372540","40986","374298","NA","NA","NA","NA","382338","NA","NA","NA","381336","NA","381309","1969","384066","NA","NA","NA","382378","1808","1958","NA","NA","383089","383112","381308","382338","382358","morph21_Oliver/Morris","60","68823","76","yes","1920","10"
"350","","79.22077922077922","79.22077922077922","904.5974025974026","904.5974025974026","black","no","xpyriment","legacy","legacy","0","201","NA","uniform","NA","NA","NA","1","undefined","1","0","76","76","76","0","76","76","76","NA","0","76","NA","NA","0","76","NA","76","0","76","NA","NA","NA","76","0","0","NA","NA","76","76","76","76","76","77","/","Thu Oct 26 11:32:37 2023","Executes Python code","yes","m21-ba-lexicalDecision.osexp","C:\Users\ekealey\Desktop","no","mono","no","18","no","white","no","yes","1080","legacy","76","76","C:/Users/ekealey/Desktop/226.csv","xpyriment","Lentiform Loewenfeld","3.3.11","0","/","space","NA","NA","NA","space","/","831","5949","NA","NA","NA","39015","831","2","legacy","1024","2","48000","-16","AB_m21","226","even","CW_S","AMAZEMENT","1808","387611","385611","372540","40986","374298","NA","NA","NA","NA","386111","NA","NA","NA","385111","NA","385079","1969","387961","NA","NA","NA","386152","1808","1958","NA","NA","386984","387008","385079","386111","386132","morph21_Oliver/Morris","61","69654","77","yes","1920","39"
"250","","79.48717948717949","79.48717948717949","902.7051282051282","902.7051282051282","black","no","xpyriment","legacy","legacy","0","202","NA","uniform","NA","NA","NA","1","undefined","1","0","77","77","77","0","77","77","77","NA","0","77","NA","NA","0","77","NA","77","0","77","NA","NA","NA","77","0","0","NA","NA","77","77","77","77","77","78","/","Thu Oct 26 11:32:37 2023","Executes Python code","yes","m21-ba-lexicalDecision.osexp","C:\Users\ekealey\Desktop","no","mono","no","18","no","white","no","yes","1080","legacy","77","77","C:/Users/ekealey/Desktop/226.csv","xpyriment","Lentiform Loewenfeld","3.3.11","0","/","space","NA","NA","NA","space","/","757","5949","NA","NA","NA","39015","757","2","legacy","1024","2","48000","-16","AB_m21","226","even","CW_L","FLEXIBLE","1808","392939","389508","391436","40986","374298","NA","NA","NA","NA","390009","NA","NA","NA","389008","NA","388976","1969","393189","NA","NA","NA","390050","1808","1958","NA","NA","390808","390832","388976","390009","390030","morph21_Oliver/Morris","62","70411","78","yes","1920","22"
"300","","79.74683544303798","79.74683544303798","902.4050632911392","902.4050632911392","black","no","xpyriment","legacy","legacy","0","202","NA","uniform","NA","NA","NA","1","undefined","1","0","78","78","78","0","78","78","78","NA","0","78","NA","NA","0","78","NA","78","0","78","NA","NA","NA","78","0","0","NA","NA","78","78","78","78","78","79","/","Thu Oct 26 11:32:37 2023","Executes Python code","yes","m21-ba-lexicalDecision.osexp","C:\Users\ekealey\Desktop","no","mono","no","18","no","white","no","yes","1080","legacy","78","78","C:/Users/ekealey/Desktop/226.csv","xpyriment","Lentiform Loewenfeld","3.3.11","0","/","space","NA","NA","NA","space","/","879","5949","NA","NA","NA","39015","879","2","legacy","1024","2","48000","-16","AB_m21","226","even","CW_L","HEATER","1808","396803","394754","391436","40986","374298","NA","NA","NA","NA","395255","NA","NA","NA","394254","NA","394221","1969","397104","NA","NA","NA","395296","1808","1958","NA","NA","396175","396200","394221","395255","395276","morph21_Oliver/Morris","63","71290","79","yes","1920","16"
"200","","80","80","899.7875","899.7875","black","no","xpyriment","legacy","legacy","0","208","NA","uniform","NA","NA","NA","1","undefined","1","0","79","79","79","0","79","79","79","NA","0","79","NA","NA","0","79","NA","79","0","79","NA","NA","NA","79","0","0","NA","NA","79","79","79","79","79","80","z","Thu Oct 26 11:32:37 2023","Executes Python code","yes","m21-ba-lexicalDecision.osexp","C:\Users\ekealey\Desktop","no","mono","no","18","no","white","no","yes","1080","legacy","79","79","C:/Users/ekealey/Desktop/226.csv","xpyriment","Lentiform Loewenfeld","3.3.11","0","z","space","NA","NA","NA","space","z","693","5949","NA","NA","NA","39015","693","2","legacy","1024","2","48000","-16","AB_m21","226","even","FILL_NW","GILN","1808","400538","398678","391436","40986","374298","NA","NA","NA","NA","399178","NA","NA","NA","398176","NA","398148","1969","400738","NA","NA","NA","399218","1808","1958","NA","NA","399912","399935","398148","399178","399198","morph21_Oliver/Morris","64","71983","80","yes","1920","25"
"350","","80.24691358024691","80.24691358024691","899.7407407407408","899.7407407407408","black","no","xpyriment","legacy","legacy","0","203","NA","uniform","NA","NA","NA","1","undefined","1","0","80","80","80","0","80","80","80","NA","0","80","NA","NA","0","80","NA","80","0","80","NA","NA","NA","80","0","0","NA","NA","80","80","80","80","80","81","z","Thu Oct 26 11:32:37 2023","Executes Python code","yes","m21-ba-lexicalDecision.osexp","C:\Users\ekealey\Desktop","no","mono","no","18","no","white","no","yes","1080","legacy","80","80","C:/Users/ekealey/Desktop/226.csv","xpyriment","Lentiform Loewenfeld","3.3.11","0","z","space","NA","NA","NA","space","z","896","5949","NA","NA","NA","39015","896","2","legacy","1024","2","48000","-16","AB_m21","226","even","NW_S_COMP","DEBTITH","1808","405844","402275","404339","40986","374298","NA","NA","NA","NA","402776","NA","NA","NA","401775","NA","401744","1969","406194","NA","NA","NA","402816","1808","1958","NA","NA","403712","403736","401744","402776","402796","morph21_Oliver/Morris","65","72879","81","yes","1920","22"
"250","","80.48780487804878","80.48780487804878","895.9146341463414","895.9146341463414","black","no","xpyriment","legacy","legacy","0","202","NA","uniform","NA","NA","NA","1","undefined","1","0","81","81","81","0","81","81","81","NA","0","81","NA","NA","0","81","NA","81","0","81","NA","NA","NA","81","0","0","NA","NA","81","81","81","81","81","82","/","Thu Oct 26 11:32:37 2023","Executes Python code","yes","m21-ba-lexicalDecision.osexp","C:\Users\ekealey\Desktop","no","mono","no","18","no","white","no","yes","1080","legacy","81","81","C:/Users/ekealey/Desktop/226.csv","xpyriment","Lentiform Loewenfeld","3.3.11","0","/","space","NA","NA","NA","space","/","586","5949","NA","NA","NA","39015","586","2","legacy","1024","2","48000","-16","AB_m21","226","even","CW_L","PUSHER","1808","409539","407786","404339","40986","374298","NA","NA","NA","NA","408286","NA","NA","NA","407286","NA","407261","1969","409789","NA","NA","NA","408326","1808","1958","NA","NA","408912","408936","407261","408286","408306","morph21_Oliver/Morris","66","73465","82","yes","1920","13"
"400","","80.72289156626506","80.72289156626506","892.0722891566265","892.0722891566265","black","no","xpyriment","legacy","legacy","0","207","NA","uniform","NA","NA","NA","1","undefined","1","0","82","82","82","0","82","82","82","NA","0","82","NA","NA","0","82","NA","82","0","82","NA","NA","NA","82","0","0","NA","NA","82","82","82","82","82","83","/","Thu Oct 26 11:32:37 2023","Executes Python code","yes","m21-ba-lexicalDecision.osexp","C:\Users\ekealey\Desktop","no","mono","no","18","no","white","no","yes","1080","legacy","82","82","C:/Users/ekealey/Desktop/226.csv","xpyriment","Lentiform Loewenfeld","3.3.11","0","/","space","NA","NA","NA","space","/","577","5949","NA","NA","NA","39015","577","2","legacy","1024","2","48000","-16","AB_m21","226","even","FILL_W","CHIP","1808","413074","411328","404339","40986","374298","NA","NA","NA","NA","411830","NA","NA","NA","410826","NA","410797","1969","413474","NA","NA","NA","411870","1808","1958","NA","NA","412448","412471","410797","411830","411850","morph21_Oliver/Morris","67","74042","83","yes","1920","11"
"200","","80.95238095238095","80.95238095238095","893.4047619047619","893.4047619047619","black","no","xpyriment","legacy","legacy","0","201","NA","uniform","NA","NA","NA","1","undefined","1","0","83","83","83","0","83","83","83","NA","0","83","NA","NA","0","83","NA","83","0","83","NA","NA","NA","83","0","0","NA","NA","83","83","83","83","83","84","/","Thu Oct 26 11:32:37 2023","Executes Python code","yes","m21-ba-lexicalDecision.osexp","C:\Users\ekealey\Desktop","no","mono","no","18","no","white","no","yes","1080","legacy","83","83","C:/Users/ekealey/Desktop/226.csv","xpyriment","Lentiform Loewenfeld","3.3.11","0","/","space","NA","NA","NA","space","/","1004","5949","NA","NA","NA","39015","1004","2","legacy","1024","2","48000","-16","AB_m21","226","even","CW_S","ENJOYMENT","1808","418732","415052","417228","40986","374298","NA","NA","NA","NA","415554","NA","NA","NA","414552","NA","414526","1969","418932","NA","NA","NA","415595","1808","1958","NA","NA","416600","416625","414526","415554","415575","morph21_Oliver/Morris","68","75046","84","yes","1920","40"
"250","","81.17647058823529","81.17647058823529","892.1529411764706","892.1529411764706","black","no","xpyriment","legacy","legacy","0","201","NA","uniform","NA","NA","NA","1","undefined","1","0","84","84","84","0","84","84","84","NA","0","84","NA","NA","0","84","NA","84","0","84","NA","NA","NA","84","0","0","NA","NA","84","84","84","84","84","85","/","Thu Oct 26 11:32:37 2023","Executes Python code","yes","m21-ba-lexicalDecision.osexp","C:\Users\ekealey\Desktop","no","mono","no","18","no","white","no","yes","1080","legacy","84","84","C:/Users/ekealey/Desktop/226.csv","xpyriment","Lentiform Loewenfeld","3.3.11","0","/","space","NA","NA","NA","space","/","787","5949","NA","NA","NA","39015","787","2","legacy","1024","2","48000","-16","AB_m21","226","even","CW_S","MILDNESS","1808","422483","420527","417228","40986","374298","NA","NA","NA","NA","421028","NA","NA","NA","420026","NA","420001","1969","422733","NA","NA","NA","421068","1808","1958","NA","NA","421856","421879","420001","421028","421048","morph21_Oliver/Morris","69","75833","85","yes","1920","42"
"350","","81.3953488372093","81.3953488372093","890.6279069767442","890.6279069767442","black","no","xpyriment","legacy","legacy","0","201","NA","uniform","NA","NA","NA","1","undefined","1","0","85","85","85","0","85","85","85","NA","0","85","NA","NA","0","85","NA","85","0","85","NA","NA","NA","85","0","0","NA","NA","85","85","85","85","85","86","/","Thu Oct 26 11:32:37 2023","Executes Python code","yes","m21-ba-lexicalDecision.osexp","C:\Users\ekealey\Desktop","no","mono","no","18","no","white","no","yes","1080","legacy","85","85","C:/Users/ekealey/Desktop/226.csv","xpyriment","Lentiform Loewenfeld","3.3.11","0","/","space","NA","NA","NA","space","/","761","5949","NA","NA","NA","39015","761","2","legacy","1024","2","48000","-16","AB_m21","226","even","CW_S","TEACHER","1808","426230","424296","417228","40986","374298","NA","NA","NA","NA","424797","NA","NA","NA","423796","NA","423770","1969","426580","NA","NA","NA","424838","1808","1958","NA","NA","425601","425626","423770","424797","424818","morph21_Oliver/Morris","70","76594","86","yes","1920","23"
"250","","80.45977011494253","80.45977011494253","894.183908045977","894.183908045977","black","no","xpyriment","legacy","legacy","0","208","NA","uniform","NA","NA","NA","0","undefined","0","0","86","86","86","0","86","86","86","NA","0","86","NA","NA","0","86","NA","86","0","86","NA","NA","NA","86","0","0","NA","NA","86","86","86","86","86","87","z","Thu Oct 26 11:32:37 2023","Executes Python code","yes","m21-ba-lexicalDecision.osexp","C:\Users\ekealey\Desktop","no","mono","no","18","no","white","no","yes","1080","legacy","86","86","C:/Users/ekealey/Desktop/226.csv","xpyriment","Lentiform Loewenfeld","3.3.11","0","None","space","NA","NA","NA","space","None","1200","5949","NA","NA","NA","39015","1200","2","legacy","1024","2","48000","-16","AB_m21","226","even","FILL_NW","POLT","1808","432007","428132","430502","40986","374298","NA","NA","NA","NA","428633","NA","NA","NA","427629","NA","427602","1969","432258","NA","NA","NA","428674","1808","1958","NA","NA","429874","429898","427602","428633","428654","morph21_Oliver/Morris","70","77794","87","yes","1920","38"
"300","","79.54545454545455","79.54545454545455","897.6590909090909","897.6590909090909","black","no","xpyriment","legacy","legacy","0","204","NA","uniform","NA","NA","NA","0","undefined","0","0","87","87","87","0","87","87","87","NA","0","87","NA","NA","0","87","NA","87","0","87","NA","NA","NA","87","0","0","NA","NA","87","87","87","87","87","88","z","Thu Oct 26 11:32:37 2023","Executes Python code","yes","m21-ba-lexicalDecision.osexp","C:\Users\ekealey\Desktop","no","mono","no","18","no","white","no","yes","1080","legacy","87","87","C:/Users/ekealey/Desktop/226.csv","xpyriment","Lentiform Loewenfeld","3.3.11","0","None","space","NA","NA","NA","space","None","1200","5949","NA","NA","NA","39015","1200","2","legacy","1024","2","48000","-16","AB_m21","226","even","NW_L_COMP","ILLILT","1808","436201","433832","430502","40986","374298","NA","NA","NA","NA","434332","NA","NA","NA","433332","NA","433299","1969","436501","NA","NA","NA","434373","1808","1958","NA","NA","435573","435598","433299","434332","434353","morph21_Oliver/Morris","70","78994","88","yes","1920","9"
"200","","79.7752808988764","79.7752808988764","898.6067415730337","898.6067415730337","black","no","xpyriment","legacy","legacy","0","203","NA","uniform","NA","NA","NA","1","undefined","1","0","88","88","88","0","88","88","88","NA","0","88","NA","NA","0","88","NA","88","0","88","NA","NA","NA","88","0","0","NA","NA","88","88","88","88","88","89","z","Thu Oct 26 11:32:37 2023","Executes Python code","yes","m21-ba-lexicalDecision.osexp","C:\Users\ekealey\Desktop","no","mono","no","18","no","white","no","yes","1080","legacy","88","88","C:/Users/ekealey/Desktop/226.csv","xpyriment","Lentiform Loewenfeld","3.3.11","0","z","space","NA","NA","NA","space","z","982","5949","NA","NA","NA","39015","982","2","legacy","1024","2","48000","-16","AB_m21","226","even","NW_S_COMP","ELMILT","1808","440306","438154","430502","40986","374298","NA","NA","NA","NA","438656","NA","NA","NA","437652","NA","437627","1969","440506","NA","NA","NA","438697","1808","1958","NA","NA","439680","439703","437627","438656","438677","morph21_Oliver/Morris","71","79976","89","yes","1920","10"
"400","","80","80","895.4777777777778","895.4777777777778","black","no","xpyriment","legacy","legacy","0","207","NA","uniform","NA","NA","NA","1","undefined","1","0","89","89","89","0","89","89","89","NA","0","89","NA","NA","0","89","NA","89","0","89","NA","NA","NA","89","0","0","NA","NA","89","89","89","89","89","90","/","Thu Oct 26 11:32:37 2023","Executes Python code","yes","m21-ba-lexicalDecision.osexp","C:\Users\ekealey\Desktop","no","mono","no","18","no","white","no","yes","1080","legacy","89","89","C:/Users/ekealey/Desktop/226.csv","xpyriment","Lentiform Loewenfeld","3.3.11","0","/","space","NA","NA","NA","space","/","617","5949","NA","NA","NA","39015","617","2","legacy","1024","2","48000","-16","AB_m21","226","even","FILL_W","CEASE","1808","445417","442129","443914","40986","374298","NA","NA","NA","NA","442629","NA","NA","NA","441629","NA","441602","1969","445817","NA","NA","NA","442670","1808","1958","NA","NA","443288","443311","441602","442629","442650","morph21_Oliver/Morris","72","80593","90","yes","1920","18"
"300","","80.21978021978022","80.21978021978022","896.5714285714286","896.5714285714286","black","no","xpyriment","legacy","legacy","0","204","NA","uniform","NA","NA","NA","1","undefined","1","0","90","90","90","0","90","90","90","NA","0","90","NA","NA","0","90","NA","90","0","90","NA","NA","NA","90","0","0","NA","NA","90","90","90","90","90","91","z","Thu Oct 26 11:32:37 2023","Executes Python code","yes","m21-ba-lexicalDecision.osexp","C:\Users\ekealey\Desktop","no","mono","no","18","no","white","no","yes","1080","legacy","90","90","C:/Users/ekealey/Desktop/226.csv","xpyriment","Lentiform Loewenfeld","3.3.11","0","z","space","NA","NA","NA","space","z","995","5949","NA","NA","NA","39015","995","2","legacy","1024","2","48000","-16","AB_m21","226","even","NW_L_COMP","BINDIG","1808","449565","447399","443914","40986","374298","NA","NA","NA","NA","447900","NA","NA","NA","446897","NA","446865","1969","449865","NA","NA","NA","447940","1808","1958","NA","NA","448936","448961","446865","447900","447920","morph21_Oliver/Morris","73","81588","91","yes","1920","22"
"250","","80.43478260869566","80.43478260869566","896.6413043478261","896.6413043478261","black","no","xpyriment","legacy","legacy","0","208","NA","uniform","NA","NA","NA","1","undefined","1","0","91","91","91","0","91","91","91","NA","0","91","NA","NA","0","91","NA","91","0","91","NA","NA","NA","91","0","0","NA","NA","91","91","91","91","91","92","z","Thu Oct 26 11:32:37 2023","Executes Python code","yes","m21-ba-lexicalDecision.osexp","C:\Users\ekealey\Desktop","no","mono","no","18","no","white","no","yes","1080","legacy","91","91","C:/Users/ekealey/Desktop/226.csv","xpyriment","Lentiform Loewenfeld","3.3.11","0","z","space","NA","NA","NA","space","z","903","5949","NA","NA","NA","39015","903","2","legacy","1024","2","48000","-16","AB_m21","226","even","FILL_NW","PLAODS","1808","453484","451411","443914","40986","374298","NA","NA","NA","NA","451912","NA","NA","NA","450911","NA","450879","1969","453734","NA","NA","NA","451952","1808","1958","NA","NA","452856","452880","450879","451912","451932","morph21_Oliver/Morris","74","82491","92","yes","1920","37"
