"ITI","_prepare","acc","accuracy","average_response_time","avg_rt","background","bidi","canvas_backend","clock_backend","color_backend","compensation","cond_trig","condtrigtime","coordinates","coroutines_cycles","coroutines_duration","coroutines_mean_cycle_duration","correct","correct_instructions_1","correct_new_keyboard_response_1","count_AB_m21","count_ITI","count_blank_screen","count_blink_screen","count_block1","count_break1","count_break2","count_break3_1","count_canvas","count_close_port","count_cond_trigger","count_correct_trigger","count_def_chain","count_end_screen","count_fixation_1","count_getting_started","count_inc_counter","count_instructions_1","count_logger","count_logscript","count_new_inline_script","count_new_inline_script_2","count_new_keyboard_response_1","count_open_port","count_reset_counter_prep","count_reset_counter_run","count_reset_counter_run_1","count_response_trigger_trial","count_responsescreen","count_sequence","count_target_present","count_word_trigger","counter","cresp","datetime","description","disable_garbage_collection","experiment_file","experiment_path","font_bold","font_family","font_italic","font_size","font_underline","foreground","form_clicks","fullscreen","height","keyboard_backend","live_row","live_row_block1","logfile","mouse_backend","opensesame_codename","opensesame_version","repeat_cycle","response","response_break1","response_break2","response_break3_1","response_end_screen","response_instructions_1","response_new_keyboard_response_1","response_time","response_time_break1","response_time_break2","response_time_break3_1","response_time_end_screen","response_time_instructions_1","response_time_new_keyboard_response_1","round_decimals","sampler_backend","sound_buf_size","sound_channels","sound_freq","sound_sample_size","start","subject_nr","subject_parity","targ_type","target","time_AB_m21","time_ITI","time_blank_screen","time_blink_screen","time_block1","time_break1","time_break2","time_break3_1","time_canvas","time_close_port","time_cond_trigger","time_correct_trigger","time_def_chain","time_end_screen","time_fixation_1","time_getting_started","time_inc_counter","time_instructions_1","time_logger","time_logscript","time_new_inline_script","time_new_inline_script_2","time_new_keyboard_response_1","time_open_port","time_reset_counter_prep","time_reset_counter_run","time_reset_counter_run_1","time_response_trigger_trial","time_responsescreen","time_sequence","time_target_present","time_word_trigger","title","total_correct","total_response_time","total_responses","uniform_coordinates","width","word_trig"
"400","","0","0","1200","1200","black","no","xpyriment","legacy","legacy","0","207","NA","uniform","NA","NA","NA","0","undefined","0","0","0","0","0","0","0","0","0","NA","0","0","NA","NA","0","0","NA","0","0","0","NA","NA","NA","0","0","0","NA","NA","0","0","0","0","0","1","/","Tue Jun 13 13:31:07 2023","Executes Python code","yes","m21-ba-lexicalDecision.osexp","C:\Users\mpike1\Desktop","no","mono","no","18","no","white","no","yes","1080","legacy","0","0","C:/Users/mpike1/Desktop/subject-202.csv","xpyriment","Lentiform Loewenfeld","3.3.11","0","None","NA","NA","NA","NA","return","None","1200","NA","NA","NA","NA","125215","1200","2","legacy","1024","2","48000","-16","AB_m21","202","even","FILL_W","CRUNCH","1983","131492","129123","NA","127366","NA","NA","NA","NA","NA","129624","NA","NA","NA","128623","NA","128590","2149","131892","NA","NA","NA","129665","1983","2135","NA","NA","130865","130889","128589","129624","129645","morph21_Oliver/Morris","0","1200","1","yes","1920","20"
"300","","50","50","1067.5","1067.5","black","no","xpyriment","legacy","legacy","0","205","NA","uniform","NA","NA","NA","1","undefined","1","0","1","1","1","0","1","1","1","NA","0","1","NA","NA","0","1","NA","1","0","1","NA","NA","NA","1","0","0","NA","NA","1","1","1","1","1","2","z","Tue Jun 13 13:31:07 2023","Executes Python code","yes","m21-ba-lexicalDecision.osexp","C:\Users\mpike1\Desktop","no","mono","no","18","no","white","no","yes","1080","legacy","1","1","C:/Users/mpike1/Desktop/subject-202.csv","xpyriment","Lentiform Loewenfeld","3.3.11","0","z","NA","NA","NA","NA","return","z","935","NA","NA","NA","NA","125215","935","2","legacy","1024","2","48000","-16","AB_m21","202","even","NW_S_SIMP","SOCKETER","1983","135512","133408","NA","127366","NA","NA","NA","NA","NA","133909","NA","NA","NA","132908","NA","132880","2149","135812","NA","NA","NA","133949","1983","2135","NA","NA","134885","134909","132880","133909","133929","morph21_Oliver/Morris","1","2135","2","yes","1920","1"
"250","","66.66666666666667","66.66666666666667","1104","1104","black","no","xpyriment","legacy","legacy","0","205","NA","uniform","NA","NA","NA","1","undefined","1","0","2","2","2","0","2","2","2","NA","0","2","NA","NA","0","2","NA","2","0","2","NA","NA","NA","2","0","0","NA","NA","2","2","2","2","2","3","z","Tue Jun 13 13:31:07 2023","Executes Python code","yes","m21-ba-lexicalDecision.osexp","C:\Users\mpike1\Desktop","no","mono","no","18","no","white","no","yes","1080","legacy","2","2","C:/Users/mpike1/Desktop/subject-202.csv","xpyriment","Lentiform Loewenfeld","3.3.11","0","z","NA","NA","NA","NA","return","z","1177","NA","NA","NA","NA","125215","1177","2","legacy","1024","2","48000","-16","AB_m21","202","even","NW_S_SIMP","DIGORY","1983","141202","137351","139696","127366","NA","NA","NA","NA","NA","137851","NA","NA","NA","136850","NA","136820","2149","141452","NA","NA","NA","137892","1983","2135","NA","NA","139069","139092","136820","137851","137872","morph21_Oliver/Morris","2","3312","3","yes","1920","11"
"300","","75","75","981.5","981.5","black","no","xpyriment","legacy","legacy","0","201","NA","uniform","NA","NA","NA","1","undefined","1","0","3","3","3","0","3","3","3","NA","0","3","NA","NA","0","3","NA","3","0","3","NA","NA","NA","3","0","0","NA","NA","3","3","3","3","3","4","/","Tue Jun 13 13:31:07 2023","Executes Python code","yes","m21-ba-lexicalDecision.osexp","C:\Users\mpike1\Desktop","no","mono","no","18","no","white","no","yes","1080","legacy","3","3","C:/Users/mpike1/Desktop/subject-202.csv","xpyriment","Lentiform Loewenfeld","3.3.11","0","/","NA","NA","NA","NA","return","/","614","NA","NA","NA","NA","125215","614","2","legacy","1024","2","48000","-16","AB_m21","202","even","CW_S","MAGICAL","1983","144769","142987","139696","127366","NA","NA","NA","NA","NA","143487","NA","NA","NA","142486","NA","142458","2149","145069","NA","NA","NA","143527","1983","2135","NA","NA","144141","144165","142458","143487","143507","morph21_Oliver/Morris","3","3926","4","yes","1920","4"
"250","","80","80","921.2","921.2","black","no","xpyriment","legacy","legacy","0","207","NA","uniform","NA","NA","NA","1","undefined","1","0","4","4","4","0","4","4","4","NA","0","4","NA","NA","0","4","NA","4","0","4","NA","NA","NA","4","0","0","NA","NA","4","4","4","4","4","5","/","Tue Jun 13 13:31:07 2023","Executes Python code","yes","m21-ba-lexicalDecision.osexp","C:\Users\mpike1\Desktop","no","mono","no","18","no","white","no","yes","1080","legacy","4","4","C:/Users/mpike1/Desktop/subject-202.csv","xpyriment","Lentiform Loewenfeld","3.3.11","0","/","NA","NA","NA","NA","return","/","680","NA","NA","NA","NA","125215","680","2","legacy","1024","2","48000","-16","AB_m21","202","even","FILL_W","SLIM","1983","148414","146567","139696","127366","NA","NA","NA","NA","NA","147068","NA","NA","NA","146066","NA","146041","2149","148664","NA","NA","NA","147108","1983","2135","NA","NA","147789","147812","146041","147068","147088","morph21_Oliver/Morris","4","4606","5","yes","1920","6"
"300","","83.33333333333333","83.33333333333333","962.8333333333334","962.8333333333334","black","no","xpyriment","legacy","legacy","0","206","NA","uniform","NA","NA","NA","1","undefined","1","0","5","5","5","0","5","5","5","NA","0","5","NA","NA","0","5","NA","5","0","5","NA","NA","NA","5","0","0","NA","NA","5","5","5","5","5","6","z","Tue Jun 13 13:31:07 2023","Executes Python code","yes","m21-ba-lexicalDecision.osexp","C:\Users\mpike1\Desktop","no","mono","no","18","no","white","no","yes","1080","legacy","5","5","C:/Users/mpike1/Desktop/subject-202.csv","xpyriment","Lentiform Loewenfeld","3.3.11","0","z","NA","NA","NA","NA","return","z","1171","NA","NA","NA","NA","125215","1171","2","legacy","1024","2","48000","-16","AB_m21","202","even","NW_L_SIMP","LONGNESS","1983","154025","150181","152521","127366","NA","NA","NA","NA","NA","150681","NA","NA","NA","149681","NA","149654","2149","154325","NA","NA","NA","150722","1983","2135","NA","NA","151893","151918","149654","150681","150702","morph21_Oliver/Morris","5","5777","6","yes","1920","17"
"250","","85.71428571428571","85.71428571428571","950.2857142857143","950.2857142857143","black","no","xpyriment","legacy","legacy","0","202","NA","uniform","NA","NA","NA","1","undefined","1","0","6","6","6","0","6","6","6","NA","0","6","NA","NA","0","6","NA","6","0","6","NA","NA","NA","6","0","0","NA","NA","6","6","6","6","6","7","/","Tue Jun 13 13:31:07 2023","Executes Python code","yes","m21-ba-lexicalDecision.osexp","C:\Users\mpike1\Desktop","no","mono","no","18","no","white","no","yes","1080","legacy","6","6","C:/Users/mpike1/Desktop/subject-202.csv","xpyriment","Lentiform Loewenfeld","3.3.11","0","/","NA","NA","NA","NA","return","/","875","NA","NA","NA","NA","125215","875","2","legacy","1024","2","48000","-16","AB_m21","202","even","CW_L","CREAMY","1983","157896","155853","152521","127366","NA","NA","NA","NA","NA","156353","NA","NA","NA","155353","NA","155323","2149","158147","NA","NA","NA","156393","1983","2135","NA","NA","157269","157292","155323","156353","156373","morph21_Oliver/Morris","6","6652","7","yes","1920","49"
"200","","87.5","87.5","936.875","936.875","black","no","xpyriment","legacy","legacy","0","205","NA","uniform","NA","NA","NA","1","undefined","1","0","7","7","7","0","7","7","7","NA","0","7","NA","NA","0","7","NA","7","0","7","NA","NA","NA","7","0","0","NA","NA","7","7","7","7","7","8","z","Tue Jun 13 13:31:07 2023","Executes Python code","yes","m21-ba-lexicalDecision.osexp","C:\Users\mpike1\Desktop","no","mono","no","18","no","white","no","yes","1080","legacy","7","7","C:/Users/mpike1/Desktop/subject-202.csv","xpyriment","Lentiform Loewenfeld","3.3.11","0","z","NA","NA","NA","NA","return","z","843","NA","NA","NA","NA","125215","843","2","legacy","1024","2","48000","-16","AB_m21","202","even","NW_S_SIMP","OPPOSEMENT","1983","161655","159644","152521","127366","NA","NA","NA","NA","NA","160145","NA","NA","NA","159144","NA","159117","2149","161855","NA","NA","NA","160186","1983","2135","NA","NA","161029","161052","159117","160145","160166","morph21_Oliver/Morris","7","7495","8","yes","1920","8"
"350","","88.88888888888889","88.88888888888889","915.2222222222222","915.2222222222222","black","no","xpyriment","legacy","legacy","0","201","NA","uniform","NA","NA","NA","1","undefined","1","0","8","8","8","0","8","8","8","NA","0","8","NA","NA","0","8","NA","8","0","8","NA","NA","NA","8","0","0","NA","NA","8","8","8","8","8","9","/","Tue Jun 13 13:31:07 2023","Executes Python code","yes","m21-ba-lexicalDecision.osexp","C:\Users\mpike1\Desktop","no","mono","no","18","no","white","no","yes","1080","legacy","8","8","C:/Users/mpike1/Desktop/subject-202.csv","xpyriment","Lentiform Loewenfeld","3.3.11","0","/","NA","NA","NA","NA","return","/","742","NA","NA","NA","NA","125215","742","2","legacy","1024","2","48000","-16","AB_m21","202","even","CW_S","SINGER","1983","166777","163362","165274","127366","NA","NA","NA","NA","NA","163862","NA","NA","NA","162862","NA","162837","2149","167127","NA","NA","NA","163902","1983","2135","NA","NA","164645","164669","162837","163862","163882","morph21_Oliver/Morris","8","8237","9","yes","1920","17"
"300","","90","90","901.1","901.1","black","no","xpyriment","legacy","legacy","0","208","NA","uniform","NA","NA","NA","1","undefined","1","0","9","9","9","0","9","9","9","NA","0","9","NA","NA","0","9","NA","9","0","9","NA","NA","NA","9","0","0","NA","NA","9","9","9","9","9","10","z","Tue Jun 13 13:31:07 2023","Executes Python code","yes","m21-ba-lexicalDecision.osexp","C:\Users\mpike1\Desktop","no","mono","no","18","no","white","no","yes","1080","legacy","9","9","C:/Users/mpike1/Desktop/subject-202.csv","xpyriment","Lentiform Loewenfeld","3.3.11","0","z","NA","NA","NA","NA","return","z","774","NA","NA","NA","NA","125215","774","2","legacy","1024","2","48000","-16","AB_m21","202","even","FILL_NW","KEMT","1983","170577","168633","165274","127366","NA","NA","NA","NA","NA","169135","NA","NA","NA","168131","NA","168108","2149","170877","NA","NA","NA","169175","1983","2135","NA","NA","169949","169974","168108","169135","169155","morph21_Oliver/Morris","9","9011","10","yes","1920","32"
"300","","81.81818181818181","81.81818181818181","928.2727272727273","928.2727272727273","black","no","xpyriment","legacy","legacy","0","206","NA","uniform","NA","NA","NA","0","undefined","0","0","10","10","10","0","10","10","10","NA","0","10","NA","NA","0","10","NA","10","0","10","NA","NA","NA","10","0","0","NA","NA","10","10","10","10","10","11","z","Tue Jun 13 13:31:07 2023","Executes Python code","yes","m21-ba-lexicalDecision.osexp","C:\Users\mpike1\Desktop","no","mono","no","18","no","white","no","yes","1080","legacy","10","10","C:/Users/mpike1/Desktop/subject-202.csv","xpyriment","Lentiform Loewenfeld","3.3.11","0","None","NA","NA","NA","NA","return","None","1200","NA","NA","NA","NA","125215","1200","2","legacy","1024","2","48000","-16","AB_m21","202","even","NW_L_SIMP","BEANISH","1983","174750","172384","165274","127366","NA","NA","NA","NA","NA","172884","NA","NA","NA","171884","NA","171857","2149","175050","NA","NA","NA","172924","1983","2135","NA","NA","174124","174147","171857","172884","172904","morph21_Oliver/Morris","9","10211","11","yes","1920","8"
"250","","83.33333333333333","83.33333333333333","916.5","916.5","black","no","xpyriment","legacy","legacy","0","202","NA","uniform","NA","NA","NA","1","undefined","1","0","11","11","11","0","11","11","11","NA","0","11","NA","NA","0","11","NA","11","0","11","NA","NA","NA","11","0","0","NA","NA","11","11","11","11","11","12","/","Tue Jun 13 13:31:07 2023","Executes Python code","yes","m21-ba-lexicalDecision.osexp","C:\Users\mpike1\Desktop","no","mono","no","18","no","white","no","yes","1080","legacy","11","11","C:/Users/mpike1/Desktop/subject-202.csv","xpyriment","Lentiform Loewenfeld","3.3.11","0","/","NA","NA","NA","NA","return","/","787","NA","NA","NA","NA","125215","787","2","legacy","1024","2","48000","-16","AB_m21","202","even","CW_L","STRIKER","1983","180009","176548","178505","127366","NA","NA","NA","NA","NA","177048","NA","NA","NA","176047","NA","176021","2149","180259","NA","NA","NA","177089","1983","2135","NA","NA","177877","177900","176021","177048","177069","morph21_Oliver/Morris","10","10998","12","yes","1920","17"
"350","","84.61538461538461","84.61538461538461","895.5384615384615","895.5384615384615","black","no","xpyriment","legacy","legacy","0","207","NA","uniform","NA","NA","NA","1","undefined","1","0","12","12","12","0","12","12","12","NA","0","12","NA","NA","0","12","NA","12","0","12","NA","NA","NA","12","0","0","NA","NA","12","12","12","12","12","13","/","Tue Jun 13 13:31:07 2023","Executes Python code","yes","m21-ba-lexicalDecision.osexp","C:\Users\mpike1\Desktop","no","mono","no","18","no","white","no","yes","1080","legacy","12","12","C:/Users/mpike1/Desktop/subject-202.csv","xpyriment","Lentiform Loewenfeld","3.3.11","0","/","NA","NA","NA","NA","return","/","644","NA","NA","NA","NA","125215","644","2","legacy","1024","2","48000","-16","AB_m21","202","even","FILL_W","FOLLOW","1983","183570","181756","178505","127366","NA","NA","NA","NA","NA","182256","NA","NA","NA","181255","NA","181233","2149","183920","NA","NA","NA","182297","1983","2135","NA","NA","182941","182966","181233","182256","182277","morph21_Oliver/Morris","11","11642","13","yes","1920","17"
"400","","85.71428571428571","85.71428571428571","877.7142857142857","877.7142857142857","black","no","xpyriment","legacy","legacy","0","208","NA","uniform","NA","NA","NA","1","undefined","1","0","13","13","13","0","13","13","13","NA","0","13","NA","NA","0","13","NA","13","0","13","NA","NA","NA","13","0","0","NA","NA","13","13","13","13","13","14","z","Tue Jun 13 13:31:07 2023","Executes Python code","yes","m21-ba-lexicalDecision.osexp","C:\Users\mpike1\Desktop","no","mono","no","18","no","white","no","yes","1080","legacy","13","13","C:/Users/mpike1/Desktop/subject-202.csv","xpyriment","Lentiform Loewenfeld","3.3.11","0","z","NA","NA","NA","NA","return","z","646","NA","NA","NA","NA","125215","646","2","legacy","1024","2","48000","-16","AB_m21","202","even","FILL_NW","BUTE","1983","187234","185418","178505","127366","NA","NA","NA","NA","NA","185918","NA","NA","NA","184918","NA","184892","2149","187634","NA","NA","NA","185959","1983","2135","NA","NA","186605","186629","184891","185918","185939","morph21_Oliver/Morris","12","12288","14","yes","1920","5"
"350","","86.66666666666667","86.66666666666667","865.5333333333333","865.5333333333333","black","no","xpyriment","legacy","legacy","0","207","NA","uniform","NA","NA","NA","1","undefined","1","0","14","14","14","0","14","14","14","NA","0","14","NA","NA","0","14","NA","14","0","14","NA","NA","NA","14","0","0","NA","NA","14","14","14","14","14","15","/","Tue Jun 13 13:31:07 2023","Executes Python code","yes","m21-ba-lexicalDecision.osexp","C:\Users\mpike1\Desktop","no","mono","no","18","no","white","no","yes","1080","legacy","14","14","C:/Users/mpike1/Desktop/subject-202.csv","xpyriment","Lentiform Loewenfeld","3.3.11","0","/","NA","NA","NA","NA","return","/","695","NA","NA","NA","NA","125215","695","2","legacy","1024","2","48000","-16","AB_m21","202","even","FILL_W","FAINT","1983","192504","189136","191001","127366","NA","NA","NA","NA","NA","189638","NA","NA","NA","188635","NA","188610","2149","192855","NA","NA","NA","189678","1983","2135","NA","NA","190373","190398","188610","189638","189658","morph21_Oliver/Morris","13","12983","15","yes","1920","31"
"400","","87.5","87.5","850.625","850.625","black","no","xpyriment","legacy","legacy","0","202","NA","uniform","NA","NA","NA","1","undefined","1","0","15","15","15","0","15","15","15","NA","0","15","NA","NA","0","15","NA","15","0","15","NA","NA","NA","15","0","0","NA","NA","15","15","15","15","15","16","/","Tue Jun 13 13:31:07 2023","Executes Python code","yes","m21-ba-lexicalDecision.osexp","C:\Users\mpike1\Desktop","no","mono","no","18","no","white","no","yes","1080","legacy","15","15","C:/Users/mpike1/Desktop/subject-202.csv","xpyriment","Lentiform Loewenfeld","3.3.11","0","/","NA","NA","NA","NA","return","/","627","NA","NA","NA","NA","125215","627","2","legacy","1024","2","48000","-16","AB_m21","202","even","CW_L","SHAPELY","1983","196151","194358","191001","127366","NA","NA","NA","NA","NA","194858","NA","NA","NA","193856","NA","193834","2149","196551","NA","NA","NA","194898","1983","2135","NA","NA","195526","195548","193834","194858","194878","morph21_Oliver/Morris","14","13610","16","yes","1920","35"
"300","","88.23529411764706","88.23529411764706","831.2352941176471","831.2352941176471","black","no","xpyriment","legacy","legacy","0","201","NA","uniform","NA","NA","NA","1","undefined","1","0","16","16","16","0","16","16","16","NA","0","16","NA","NA","0","16","NA","16","0","16","NA","NA","NA","16","0","0","NA","NA","16","16","16","16","16","17","/","Tue Jun 13 13:31:07 2023","Executes Python code","yes","m21-ba-lexicalDecision.osexp","C:\Users\mpike1\Desktop","no","mono","no","18","no","white","no","yes","1080","legacy","16","16","C:/Users/mpike1/Desktop/subject-202.csv","xpyriment","Lentiform Loewenfeld","3.3.11","0","/","NA","NA","NA","NA","return","/","521","NA","NA","NA","NA","125215","521","2","legacy","1024","2","48000","-16","AB_m21","202","even","CW_S","RISKY","1983","199770","198078","191001","127366","NA","NA","NA","NA","NA","198579","NA","NA","NA","197577","NA","197551","2149","200070","NA","NA","NA","198619","1983","2135","NA","NA","199141","199164","197551","198578","198599","morph21_Oliver/Morris","15","14131","17","yes","1920","50"
"200","","88.88888888888889","88.88888888888889","811.4444444444445","811.4444444444445","black","no","xpyriment","legacy","legacy","0","207","NA","uniform","NA","NA","NA","1","undefined","1","0","17","17","17","0","17","17","17","NA","0","17","NA","NA","0","17","NA","17","0","17","NA","NA","NA","17","0","0","NA","NA","17","17","17","17","17","18","/","Tue Jun 13 13:31:07 2023","Executes Python code","yes","m21-ba-lexicalDecision.osexp","C:\Users\mpike1\Desktop","no","mono","no","18","no","white","no","yes","1080","legacy","17","17","C:/Users/mpike1/Desktop/subject-202.csv","xpyriment","Lentiform Loewenfeld","3.3.11","0","/","NA","NA","NA","NA","return","/","475","NA","NA","NA","NA","125215","475","2","legacy","1024","2","48000","-16","AB_m21","202","even","FILL_W","FLOAT","1983","204720","201571","203217","127366","NA","NA","NA","NA","NA","202073","NA","NA","NA","201069","NA","201045","2149","204920","NA","NA","NA","202114","1983","2135","NA","NA","202589","202614","201045","202072","202094","morph21_Oliver/Morris","16","14606","18","yes","1920","30"
"200","","89.47368421052632","89.47368421052632","802.6315789473684","802.6315789473684","black","no","xpyriment","legacy","legacy","0","208","NA","uniform","NA","NA","NA","1","undefined","1","0","18","18","18","0","18","18","18","NA","0","18","NA","NA","0","18","NA","18","0","18","NA","NA","NA","18","0","0","NA","NA","18","18","18","18","18","19","z","Tue Jun 13 13:31:07 2023","Executes Python code","yes","m21-ba-lexicalDecision.osexp","C:\Users\mpike1\Desktop","no","mono","no","18","no","white","no","yes","1080","legacy","18","18","C:/Users/mpike1/Desktop/subject-202.csv","xpyriment","Lentiform Loewenfeld","3.3.11","0","z","NA","NA","NA","NA","return","z","644","NA","NA","NA","NA","125215","644","2","legacy","1024","2","48000","-16","AB_m21","202","even","FILL_NW","GILN","1983","208266","206453","203217","127366","NA","NA","NA","NA","NA","206953","NA","NA","NA","205952","NA","205923","2149","208467","NA","NA","NA","206993","1983","2135","NA","NA","207637","207661","205923","206953","206973","morph21_Oliver/Morris","17","15250","19","yes","1920","25"
"350","","90","90","786.35","786.35","black","no","xpyriment","legacy","legacy","0","201","NA","uniform","NA","NA","NA","1","undefined","1","0","19","19","19","0","19","19","19","NA","0","19","NA","NA","0","19","NA","19","0","19","NA","NA","NA","19","0","0","NA","NA","19","19","19","19","19","20","/","Tue Jun 13 13:31:07 2023","Executes Python code","yes","m21-ba-lexicalDecision.osexp","C:\Users\mpike1\Desktop","no","mono","no","18","no","white","no","yes","1080","legacy","19","19","C:/Users/mpike1/Desktop/subject-202.csv","xpyriment","Lentiform Loewenfeld","3.3.11","0","/","NA","NA","NA","NA","return","/","477","NA","NA","NA","NA","125215","477","2","legacy","1024","2","48000","-16","AB_m21","202","even","CW_S","TOASTER","1983","211647","210003","203217","127366","NA","NA","NA","NA","NA","210503","NA","NA","NA","209502","NA","209475","2149","211997","NA","NA","NA","210544","1983","2135","NA","NA","211021","211044","209475","210503","210524","morph21_Oliver/Morris","18","15727","20","yes","1920","10"
"300","","90.47619047619048","90.47619047619048","784.5714285714286","784.5714285714286","black","no","xpyriment","legacy","legacy","0","208","NA","uniform","NA","NA","NA","1","undefined","1","0","20","20","20","0","20","20","20","NA","0","20","NA","NA","0","20","NA","20","0","20","NA","NA","NA","20","0","0","NA","NA","20","20","20","20","20","21","z","Tue Jun 13 13:31:07 2023","Executes Python code","yes","m21-ba-lexicalDecision.osexp","C:\Users\mpike1\Desktop","no","mono","no","18","no","white","no","yes","1080","legacy","20","20","C:/Users/mpike1/Desktop/subject-202.csv","xpyriment","Lentiform Loewenfeld","3.3.11","0","z","NA","NA","NA","NA","return","z","749","NA","NA","NA","NA","125215","749","2","legacy","1024","2","48000","-16","AB_m21","202","even","FILL_NW","SCURE","1983","216928","213508","215425","127366","NA","NA","NA","NA","NA","214008","NA","NA","NA","213007","NA","212981","2149","217228","NA","NA","NA","214048","1983","2135","NA","NA","214797","214822","212981","214008","214028","morph21_Oliver/Morris","19","16476","21","yes","1920","41"
"300","","90.9090909090909","90.9090909090909","773.7272727272727","773.7272727272727","black","no","xpyriment","legacy","legacy","0","207","NA","uniform","NA","NA","NA","1","undefined","1","0","21","21","21","0","21","21","21","NA","0","21","NA","NA","0","21","NA","21","0","21","NA","NA","NA","21","0","0","NA","NA","21","21","21","21","21","22","/","Tue Jun 13 13:31:07 2023","Executes Python code","yes","m21-ba-lexicalDecision.osexp","C:\Users\mpike1\Desktop","no","mono","no","18","no","white","no","yes","1080","legacy","21","21","C:/Users/mpike1/Desktop/subject-202.csv","xpyriment","Lentiform Loewenfeld","3.3.11","0","/","NA","NA","NA","NA","return","/","546","NA","NA","NA","NA","125215","546","2","legacy","1024","2","48000","-16","AB_m21","202","even","FILL_W","MOURN","1983","220480","218765","215425","127366","NA","NA","NA","NA","NA","219266","NA","NA","NA","218263","NA","218230","2149","220780","NA","NA","NA","219307","1983","2135","NA","NA","219854","219877","218230","219266","219287","morph21_Oliver/Morris","20","17022","22","yes","1920","26"
"200","","91.30434782608695","91.30434782608695","767.9130434782609","767.9130434782609","black","no","xpyriment","legacy","legacy","0","205","NA","uniform","NA","NA","NA","1","undefined","1","0","22","22","22","0","22","22","22","NA","0","22","NA","NA","0","22","NA","22","0","22","NA","NA","NA","22","0","0","NA","NA","22","22","22","22","22","23","z","Tue Jun 13 13:31:07 2023","Executes Python code","yes","m21-ba-lexicalDecision.osexp","C:\Users\mpike1\Desktop","no","mono","no","18","no","white","no","yes","1080","legacy","22","22","C:/Users/mpike1/Desktop/subject-202.csv","xpyriment","Lentiform Loewenfeld","3.3.11","0","z","NA","NA","NA","NA","return","z","640","NA","NA","NA","NA","125215","640","2","legacy","1024","2","48000","-16","AB_m21","202","even","NW_S_SIMP","JAWLY","1983","224107","222296","215425","127366","NA","NA","NA","NA","NA","222796","NA","NA","NA","221796","NA","221773","2149","224307","NA","NA","NA","222837","1983","2135","NA","NA","223477","223503","221773","222796","222817","morph21_Oliver/Morris","21","17662","23","yes","1920","7"
"350","","91.66666666666667","91.66666666666667","765.4166666666666","765.4166666666666","black","no","xpyriment","legacy","legacy","0","203","NA","uniform","NA","NA","NA","1","undefined","1","0","23","23","23","0","23","23","23","NA","0","23","NA","NA","0","23","NA","23","0","23","NA","NA","NA","23","0","0","NA","NA","23","23","23","23","23","24","z","Tue Jun 13 13:31:07 2023","Executes Python code","yes","m21-ba-lexicalDecision.osexp","C:\Users\mpike1\Desktop","no","mono","no","18","no","white","no","yes","1080","legacy","23","23","C:/Users/mpike1/Desktop/subject-202.csv","xpyriment","Lentiform Loewenfeld","3.3.11","0","z","NA","NA","NA","NA","return","z","708","NA","NA","NA","NA","125215","708","2","legacy","1024","2","48000","-16","AB_m21","202","even","NW_S_COMP","DEBTITH","1983","229215","225835","227712","127366","NA","NA","NA","NA","NA","226336","NA","NA","NA","225333","NA","225308","2149","229565","NA","NA","NA","226377","1983","2135","NA","NA","227085","227109","225308","226336","226357","morph21_Oliver/Morris","22","18370","24","yes","1920","22"
"350","","92","92","755.96","755.96","black","no","xpyriment","legacy","legacy","0","202","NA","uniform","NA","NA","NA","1","undefined","1","0","24","24","24","0","24","24","24","NA","0","24","NA","NA","0","24","NA","24","0","24","NA","NA","NA","24","0","0","NA","NA","24","24","24","24","24","25","/","Tue Jun 13 13:31:07 2023","Executes Python code","yes","m21-ba-lexicalDecision.osexp","C:\Users\mpike1\Desktop","no","mono","no","18","no","white","no","yes","1080","legacy","24","24","C:/Users/mpike1/Desktop/subject-202.csv","xpyriment","Lentiform Loewenfeld","3.3.11","0","/","NA","NA","NA","NA","return","/","529","NA","NA","NA","NA","125215","529","2","legacy","1024","2","48000","-16","AB_m21","202","even","CW_L","BOMBER","1983","232792","231095","227712","127366","NA","NA","NA","NA","NA","231596","NA","NA","NA","230594","NA","230566","2149","233142","NA","NA","NA","231636","1983","2135","NA","NA","232166","232189","230566","231596","231616","morph21_Oliver/Morris","23","18899","25","yes","1920","7"
"350","","92.3076923076923","92.3076923076923","752.8076923076923","752.8076923076923","black","no","xpyriment","legacy","legacy","0","202","NA","uniform","NA","NA","NA","1","undefined","1","0","25","25","25","0","25","25","25","NA","0","25","NA","NA","0","25","NA","25","0","25","NA","NA","NA","25","0","0","NA","NA","25","25","25","25","25","26","/","Tue Jun 13 13:31:07 2023","Executes Python code","yes","m21-ba-lexicalDecision.osexp","C:\Users\mpike1\Desktop","no","mono","no","18","no","white","no","yes","1080","legacy","25","25","C:/Users/mpike1/Desktop/subject-202.csv","xpyriment","Lentiform Loewenfeld","3.3.11","0","/","NA","NA","NA","NA","return","/","674","NA","NA","NA","NA","125215","674","2","legacy","1024","2","48000","-16","AB_m21","202","even","CW_L","FEEDER","1983","236488","234646","227712","127366","NA","NA","NA","NA","NA","235147","NA","NA","NA","234146","NA","234119","2149","236839","NA","NA","NA","235187","1983","2135","NA","NA","235861","235885","234119","235147","235167","morph21_Oliver/Morris","24","19573","26","yes","1920","14"
"350","","92.5925925925926","92.5925925925926","745.1111111111111","745.1111111111111","black","no","xpyriment","legacy","legacy","0","202","NA","uniform","NA","NA","NA","1","undefined","1","0","26","26","26","0","26","26","26","NA","0","26","NA","NA","0","26","NA","26","0","26","NA","NA","NA","26","0","0","NA","NA","26","26","26","26","26","27","/","Tue Jun 13 13:31:07 2023","Executes Python code","yes","m21-ba-lexicalDecision.osexp","C:\Users\mpike1\Desktop","no","mono","no","18","no","white","no","yes","1080","legacy","26","26","C:/Users/mpike1/Desktop/subject-202.csv","xpyriment","Lentiform Loewenfeld","3.3.11","0","/","NA","NA","NA","NA","return","/","545","NA","NA","NA","NA","125215","545","2","legacy","1024","2","48000","-16","AB_m21","202","even","CW_L","EDITOR","1983","241570","238351","240066","127366","NA","NA","NA","NA","NA","238851","NA","NA","NA","237850","NA","237822","2149","241920","NA","NA","NA","238892","1983","2135","NA","NA","239438","239461","237822","238851","238872","morph21_Oliver/Morris","25","20118","27","yes","1920","45"
"400","","92.85714285714286","92.85714285714286","734.3928571428571","734.3928571428571","black","no","xpyriment","legacy","legacy","0","202","NA","uniform","NA","NA","NA","1","undefined","1","0","27","27","27","0","27","27","27","NA","0","27","NA","NA","0","27","NA","27","0","27","NA","NA","NA","27","0","0","NA","NA","27","27","27","27","27","28","/","Tue Jun 13 13:31:07 2023","Executes Python code","yes","m21-ba-lexicalDecision.osexp","C:\Users\mpike1\Desktop","no","mono","no","18","no","white","no","yes","1080","legacy","27","27","C:/Users/mpike1/Desktop/subject-202.csv","xpyriment","Lentiform Loewenfeld","3.3.11","0","/","NA","NA","NA","NA","return","/","445","NA","NA","NA","NA","125215","445","2","legacy","1024","2","48000","-16","AB_m21","202","even","CW_L","LOCKER","1983","245040","243425","240066","127366","NA","NA","NA","NA","NA","243926","NA","NA","NA","242925","NA","242901","2149","245440","NA","NA","NA","243967","1983","2135","NA","NA","244413","244437","242901","243926","243947","morph21_Oliver/Morris","26","20563","28","yes","1920","8"
"250","","93.10344827586206","93.10344827586206","733.4137931034483","733.4137931034483","black","no","xpyriment","legacy","legacy","0","203","NA","uniform","NA","NA","NA","1","undefined","1","0","28","28","28","0","28","28","28","NA","0","28","NA","NA","0","28","NA","28","0","28","NA","NA","NA","28","0","0","NA","NA","28","28","28","28","28","29","z","Tue Jun 13 13:31:07 2023","Executes Python code","yes","m21-ba-lexicalDecision.osexp","C:\Users\mpike1\Desktop","no","mono","no","18","no","white","no","yes","1080","legacy","28","28","C:/Users/mpike1/Desktop/subject-202.csv","xpyriment","Lentiform Loewenfeld","3.3.11","0","z","NA","NA","NA","NA","return","z","706","NA","NA","NA","NA","125215","706","2","legacy","1024","2","48000","-16","AB_m21","202","even","NW_S_COMP","BRANCHEL","1983","248816","246942","240066","127366","NA","NA","NA","NA","NA","247443","NA","NA","NA","246441","NA","246415","2149","249067","NA","NA","NA","247483","1983","2135","NA","NA","248190","248213","246414","247443","247463","morph21_Oliver/Morris","27","21269","29","yes","1920","16"
"300","","93.33333333333333","93.33333333333333","731.3333333333334","731.3333333333334","black","no","xpyriment","legacy","legacy","0","208","NA","uniform","NA","NA","NA","1","undefined","1","0","29","29","29","0","29","29","29","NA","0","29","NA","NA","0","29","NA","29","0","29","NA","NA","NA","29","0","0","NA","NA","29","29","29","29","29","30","z","Tue Jun 13 13:31:07 2023","Executes Python code","yes","m21-ba-lexicalDecision.osexp","C:\Users\mpike1\Desktop","no","mono","no","18","no","white","no","yes","1080","legacy","29","29","C:/Users/mpike1/Desktop/subject-202.csv","xpyriment","Lentiform Loewenfeld","3.3.11","0","z","NA","NA","NA","NA","return","z","671","NA","NA","NA","NA","125215","671","2","legacy","1024","2","48000","-16","AB_m21","202","even","FILL_NW","DULKS","1983","253961","250617","252457","127366","NA","NA","NA","NA","NA","251118","NA","NA","NA","250117","NA","250090","2149","254261","NA","NA","NA","251158","1983","2135","NA","NA","251829","251853","250090","251117","251138","morph21_Oliver/Morris","28","21940","30","yes","1920","18"
"250","","93.54838709677419","93.54838709677419","723.6774193548387","723.6774193548387","black","no","xpyriment","legacy","legacy","0","201","NA","uniform","NA","NA","NA","1","undefined","1","0","30","30","30","0","30","30","30","NA","0","30","NA","NA","0","30","NA","30","0","30","NA","NA","NA","30","0","0","NA","NA","30","30","30","30","30","31","/","Tue Jun 13 13:31:07 2023","Executes Python code","yes","m21-ba-lexicalDecision.osexp","C:\Users\mpike1\Desktop","no","mono","no","18","no","white","no","yes","1080","legacy","30","30","C:/Users/mpike1/Desktop/subject-202.csv","xpyriment","Lentiform Loewenfeld","3.3.11","0","/","NA","NA","NA","NA","return","/","494","NA","NA","NA","NA","125215","494","2","legacy","1024","2","48000","-16","AB_m21","202","even","CW_S","COSTLY","1983","257424","255761","252457","127366","NA","NA","NA","NA","NA","256261","NA","NA","NA","255261","NA","255238","2149","257674","NA","NA","NA","256302","1983","2135","NA","NA","256797","256821","255238","256261","256282","morph21_Oliver/Morris","29","22434","31","yes","1920","36"
"350","","93.75","93.75","715.0625","715.0625","black","no","xpyriment","legacy","legacy","0","207","NA","uniform","NA","NA","NA","1","undefined","1","0","31","31","31","0","31","31","31","NA","0","31","NA","NA","0","31","NA","31","0","31","NA","NA","NA","31","0","0","NA","NA","31","31","31","31","31","32","/","Tue Jun 13 13:31:07 2023","Executes Python code","yes","m21-ba-lexicalDecision.osexp","C:\Users\mpike1\Desktop","no","mono","no","18","no","white","no","yes","1080","legacy","31","31","C:/Users/mpike1/Desktop/subject-202.csv","xpyriment","Lentiform Loewenfeld","3.3.11","0","/","NA","NA","NA","NA","return","/","448","NA","NA","NA","NA","125215","448","2","legacy","1024","2","48000","-16","AB_m21","202","even","FILL_W","LEAK","1983","260794","259176","252457","127366","NA","NA","NA","NA","NA","259677","NA","NA","NA","258675","NA","258650","2149","261144","NA","NA","NA","259717","1983","2135","NA","NA","260166","260190","258650","259677","259697","morph21_Oliver/Morris","30","22882","32","yes","1920","9"
"350","","93.93939393939394","93.93939393939394","710.2727272727273","710.2727272727273","black","no","xpyriment","legacy","legacy","0","201","NA","uniform","NA","NA","NA","1","undefined","1","0","32","32","32","0","32","32","32","NA","0","32","NA","NA","0","32","NA","32","0","32","NA","NA","NA","32","0","0","NA","NA","32","32","32","32","32","33","/","Tue Jun 13 13:31:07 2023","Executes Python code","yes","m21-ba-lexicalDecision.osexp","C:\Users\mpike1\Desktop","no","mono","no","18","no","white","no","yes","1080","legacy","32","32","C:/Users/mpike1/Desktop/subject-202.csv","xpyriment","Lentiform Loewenfeld","3.3.11","0","/","NA","NA","NA","NA","return","/","557","NA","NA","NA","NA","125215","557","2","legacy","1024","2","48000","-16","AB_m21","202","even","CW_S","BOSSY","1983","265907","262674","264404","127366","NA","NA","NA","NA","NA","263175","NA","NA","NA","262174","NA","262145","2149","266257","NA","NA","NA","263216","1983","2135","NA","NA","263774","263799","262145","263175","263195","morph21_Oliver/Morris","31","23439","33","yes","1920","49"
"350","","94.11764705882354","94.11764705882354","708.9411764705883","708.9411764705883","black","no","xpyriment","legacy","legacy","0","203","NA","uniform","NA","NA","NA","1","undefined","1","0","33","33","33","0","33","33","33","NA","0","33","NA","NA","0","33","NA","33","0","33","NA","NA","NA","33","0","0","NA","NA","33","33","33","33","33","34","z","Tue Jun 13 13:31:07 2023","Executes Python code","yes","m21-ba-lexicalDecision.osexp","C:\Users\mpike1\Desktop","no","mono","no","18","no","white","no","yes","1080","legacy","33","33","C:/Users/mpike1/Desktop/subject-202.csv","xpyriment","Lentiform Loewenfeld","3.3.11","0","z","NA","NA","NA","NA","return","z","665","NA","NA","NA","NA","125215","665","2","legacy","1024","2","48000","-16","AB_m21","202","even","NW_S_COMP","EJECTENGE","1983","269656","267822","264404","127366","NA","NA","NA","NA","NA","268322","NA","NA","NA","267322","NA","267288","2149","270006","NA","NA","NA","268363","1983","2135","NA","NA","269029","269053","267288","268322","268343","morph21_Oliver/Morris","32","24104","34","yes","1920","20"
"250","","91.42857142857143","91.42857142857143","719.2857142857143","719.2857142857143","black","no","xpyriment","legacy","legacy","0","201","NA","uniform","NA","NA","NA","0","undefined","0","0","34","34","34","0","34","34","34","NA","0","34","NA","NA","0","34","NA","34","0","34","NA","NA","NA","34","0","0","NA","NA","34","34","34","34","34","35","/","Tue Jun 13 13:31:07 2023","Executes Python code","yes","m21-ba-lexicalDecision.osexp","C:\Users\mpike1\Desktop","no","mono","no","18","no","white","no","yes","1080","legacy","34","34","C:/Users/mpike1/Desktop/subject-202.csv","xpyriment","Lentiform Loewenfeld","3.3.11","0","z","NA","NA","NA","NA","return","z","1071","NA","NA","NA","NA","125215","1071","2","legacy","1024","2","48000","-16","AB_m21","202","even","CW_S","HUGELY","1983","273760","271519","264404","127366","NA","NA","NA","NA","NA","272019","NA","NA","NA","271019","NA","270991","2149","274010","NA","NA","NA","272061","1983","2135","NA","NA","273133","273156","270991","272019","272040","morph21_Oliver/Morris","32","25175","35","yes","1920","35"
"400","","91.66666666666667","91.66666666666667","714.6944444444445","714.6944444444445","black","no","xpyriment","legacy","legacy","0","202","NA","uniform","NA","NA","NA","1","undefined","1","0","35","35","35","0","35","35","35","NA","0","35","NA","NA","0","35","NA","35","0","35","NA","NA","NA","35","0","0","NA","NA","35","35","35","35","35","36","/","Tue Jun 13 13:31:07 2023","Executes Python code","yes","m21-ba-lexicalDecision.osexp","C:\Users\mpike1\Desktop","no","mono","no","18","no","white","no","yes","1080","legacy","35","35","C:/Users/mpike1/Desktop/subject-202.csv","xpyriment","Lentiform Loewenfeld","3.3.11","0","/","NA","NA","NA","NA","return","/","554","NA","NA","NA","NA","125215","554","2","legacy","1024","2","48000","-16","AB_m21","202","even","CW_L","BLINDNESS","1983","278752","275527","277248","127366","NA","NA","NA","NA","NA","276027","NA","NA","NA","275026","NA","274996","2149","279152","NA","NA","NA","276067","1983","2135","NA","NA","276621","276645","274996","276027","276047","morph21_Oliver/Morris","33","25729","36","yes","1920","40"
"200","","91.89189189189189","91.89189189189189","709.6756756756756","709.6756756756756","black","no","xpyriment","legacy","legacy","0","207","NA","uniform","NA","NA","NA","1","undefined","1","0","36","36","36","0","36","36","36","NA","0","36","NA","NA","0","36","NA","36","0","36","NA","NA","NA","36","0","0","NA","NA","36","36","36","36","36","37","/","Tue Jun 13 13:31:07 2023","Executes Python code","yes","m21-ba-lexicalDecision.osexp","C:\Users\mpike1\Desktop","no","mono","no","18","no","white","no","yes","1080","legacy","36","36","C:/Users/mpike1/Desktop/subject-202.csv","xpyriment","Lentiform Loewenfeld","3.3.11","0","/","NA","NA","NA","NA","return","/","529","NA","NA","NA","NA","125215","529","2","legacy","1024","2","48000","-16","AB_m21","202","even","FILL_W","BLEAK","1983","282351","280656","277248","127366","NA","NA","NA","NA","NA","281156","NA","NA","NA","280156","NA","280132","2149","282551","NA","NA","NA","281196","1983","2135","NA","NA","281725","281748","280132","281156","281176","morph21_Oliver/Morris","34","26258","37","yes","1920","5"
"200","","92.10526315789474","92.10526315789474","703.6842105263158","703.6842105263158","black","no","xpyriment","legacy","legacy","0","207","NA","uniform","NA","NA","NA","1","undefined","1","0","37","37","37","0","37","37","37","NA","0","37","NA","NA","0","37","NA","37","0","37","NA","NA","NA","37","0","0","NA","NA","37","37","37","37","37","38","/","Tue Jun 13 13:31:07 2023","Executes Python code","yes","m21-ba-lexicalDecision.osexp","C:\Users\mpike1\Desktop","no","mono","no","18","no","white","no","yes","1080","legacy","37","37","C:/Users/mpike1/Desktop/subject-202.csv","xpyriment","Lentiform Loewenfeld","3.3.11","0","/","NA","NA","NA","NA","return","/","482","NA","NA","NA","NA","125215","482","2","legacy","1024","2","48000","-16","AB_m21","202","even","FILL_W","STALK","1983","285707","284054","277248","127366","NA","NA","NA","NA","NA","284554","NA","NA","NA","283553","NA","283524","2149","285907","NA","NA","NA","284595","1983","2135","NA","NA","285077","285103","283524","284554","284575","morph21_Oliver/Morris","35","26740","38","yes","1920","27"
"300","","92.3076923076923","92.3076923076923","700.0769230769231","700.0769230769231","black","no","xpyriment","legacy","legacy","0","202","NA","uniform","NA","NA","NA","1","undefined","1","0","38","38","38","0","38","38","38","NA","0","38","NA","NA","0","38","NA","38","0","38","NA","NA","NA","38","0","0","NA","NA","38","38","38","38","38","39","/","Tue Jun 13 13:31:07 2023","Executes Python code","yes","m21-ba-lexicalDecision.osexp","C:\Users\mpike1\Desktop","no","mono","no","18","no","white","no","yes","1080","legacy","38","38","C:/Users/mpike1/Desktop/subject-202.csv","xpyriment","Lentiform Loewenfeld","3.3.11","0","/","NA","NA","NA","NA","return","/","563","NA","NA","NA","NA","125215","563","2","legacy","1024","2","48000","-16","AB_m21","202","even","CW_L","HEATER","1983","290647","287412","289144","127366","NA","NA","NA","NA","NA","287913","NA","NA","NA","286912","NA","286886","2149","290947","NA","NA","NA","287954","1983","2135","NA","NA","288518","288541","286886","287913","287934","morph21_Oliver/Morris","36","27303","39","yes","1920","16"
"400","","92.5","92.5","694.425","694.425","black","no","xpyriment","legacy","legacy","0","202","NA","uniform","NA","NA","NA","1","undefined","1","0","39","39","39","0","39","39","39","NA","0","39","NA","NA","0","39","NA","39","0","39","NA","NA","NA","39","0","0","NA","NA","39","39","39","39","39","40","/","Tue Jun 13 13:31:07 2023","Executes Python code","yes","m21-ba-lexicalDecision.osexp","C:\Users\mpike1\Desktop","no","mono","no","18","no","white","no","yes","1080","legacy","39","39","C:/Users/mpike1/Desktop/subject-202.csv","xpyriment","Lentiform Loewenfeld","3.3.11","0","/","NA","NA","NA","NA","return","/","474","NA","NA","NA","NA","125215","474","2","legacy","1024","2","48000","-16","AB_m21","202","even","CW_L","CLEANER","1983","294110","292468","289144","127366","NA","NA","NA","NA","NA","292969","NA","NA","NA","291966","NA","291943","2149","294510","NA","NA","NA","293010","1983","2135","NA","NA","293485","293508","291943","292969","292990","morph21_Oliver/Morris","37","27777","40","yes","1920","15"
"200","","92.6829268292683","92.6829268292683","688.3658536585366","688.3658536585366","black","no","xpyriment","legacy","legacy","0","202","NA","uniform","NA","NA","NA","1","undefined","1","0","40","40","40","0","40","40","40","NA","0","40","NA","NA","0","40","NA","40","0","40","NA","NA","NA","40","0","0","NA","NA","40","40","40","40","40","41","/","Tue Jun 13 13:31:07 2023","Executes Python code","yes","m21-ba-lexicalDecision.osexp","C:\Users\mpike1\Desktop","no","mono","no","18","no","white","no","yes","1080","legacy","40","40","C:/Users/mpike1/Desktop/subject-202.csv","xpyriment","Lentiform Loewenfeld","3.3.11","0","/","NA","NA","NA","NA","return","/","446","NA","NA","NA","NA","125215","446","2","legacy","1024","2","48000","-16","AB_m21","202","even","CW_L","VERBAL","1983","297625","296009","289144","127366","NA","NA","NA","NA","NA","296510","NA","NA","NA","295509","NA","295483","2149","297825","NA","NA","NA","296551","1983","2135","NA","NA","296998","297022","295483","296510","296530","morph21_Oliver/Morris","38","28223","41","yes","1920","50"
"300","","92.85714285714286","92.85714285714286","686.4285714285714","686.4285714285714","black","no","xpyriment","legacy","legacy","0","204","NA","uniform","NA","NA","NA","1","undefined","1","0","41","41","41","0","41","41","41","NA","0","41","NA","NA","0","41","NA","41","0","41","NA","NA","NA","41","0","0","NA","NA","41","41","41","41","41","42","z","Tue Jun 13 13:31:07 2023","Executes Python code","yes","m21-ba-lexicalDecision.osexp","C:\Users\mpike1\Desktop","no","mono","no","18","no","white","no","yes","1080","legacy","41","41","C:/Users/mpike1/Desktop/subject-202.csv","xpyriment","Lentiform Loewenfeld","3.3.11","0","z","NA","NA","NA","NA","return","z","607","NA","NA","NA","NA","125215","607","2","legacy","1024","2","48000","-16","AB_m21","202","even","NW_L_COMP","EMPLOYNELS","1983","302631","299352","301127","127366","NA","NA","NA","NA","NA","299852","NA","NA","NA","298852","NA","298821","2149","302931","NA","NA","NA","299893","1983","2135","NA","NA","300501","300524","298821","299852","299873","morph21_Oliver/Morris","39","28830","42","yes","1920","21"
"200","","93.02325581395348","93.02325581395348","685.8139534883721","685.8139534883721","black","no","xpyriment","legacy","legacy","0","208","NA","uniform","NA","NA","NA","1","undefined","1","0","42","42","42","0","42","42","42","NA","0","42","NA","NA","0","42","NA","42","0","42","NA","NA","NA","42","0","0","NA","NA","42","42","42","42","42","43","z","Tue Jun 13 13:31:07 2023","Executes Python code","yes","m21-ba-lexicalDecision.osexp","C:\Users\mpike1\Desktop","no","mono","no","18","no","white","no","yes","1080","legacy","42","42","C:/Users/mpike1/Desktop/subject-202.csv","xpyriment","Lentiform Loewenfeld","3.3.11","0","z","NA","NA","NA","NA","return","z","660","NA","NA","NA","NA","125215","660","2","legacy","1024","2","48000","-16","AB_m21","202","even","FILL_NW","PUCTS","1983","306288","304461","301127","127366","NA","NA","NA","NA","NA","304961","NA","NA","NA","303960","NA","303930","2149","306488","NA","NA","NA","305001","1983","2135","NA","NA","305661","305684","303930","304961","304981","morph21_Oliver/Morris","40","29490","43","yes","1920","40"
"400","","93.18181818181819","93.18181818181819","684.7272727272727","684.7272727272727","black","no","xpyriment","legacy","legacy","0","205","NA","uniform","NA","NA","NA","1","undefined","1","0","43","43","43","0","43","43","43","NA","0","43","NA","NA","0","43","NA","43","0","43","NA","NA","NA","43","0","0","NA","NA","43","43","43","43","43","44","z","Tue Jun 13 13:31:07 2023","Executes Python code","yes","m21-ba-lexicalDecision.osexp","C:\Users\mpike1\Desktop","no","mono","no","18","no","white","no","yes","1080","legacy","43","43","C:/Users/mpike1/Desktop/subject-202.csv","xpyriment","Lentiform Loewenfeld","3.3.11","0","z","NA","NA","NA","NA","return","z","638","NA","NA","NA","NA","125215","638","2","legacy","1024","2","48000","-16","AB_m21","202","even","NW_S_SIMP","RAMPIZE","1983","309801","307994","301127","127366","NA","NA","NA","NA","NA","308495","NA","NA","NA","307493","NA","307469","2149","310202","NA","NA","NA","308535","1983","2135","NA","NA","309174","309197","307468","308495","308515","morph21_Oliver/Morris","41","30128","44","yes","1920","6"
"400","","93.33333333333333","93.33333333333333","682.4888888888889","682.4888888888889","black","no","xpyriment","legacy","legacy","0","203","NA","uniform","NA","NA","NA","1","undefined","1","0","44","44","44","0","44","44","44","NA","0","44","NA","NA","0","44","NA","44","0","44","NA","NA","NA","44","0","0","NA","NA","44","44","44","44","44","45","z","Tue Jun 13 13:31:07 2023","Executes Python code","yes","m21-ba-lexicalDecision.osexp","C:\Users\mpike1\Desktop","no","mono","no","18","no","white","no","yes","1080","legacy","44","44","C:/Users/mpike1/Desktop/subject-202.csv","xpyriment","Lentiform Loewenfeld","3.3.11","0","z","NA","NA","NA","NA","return","z","584","NA","NA","NA","NA","125215","584","2","legacy","1024","2","48000","-16","AB_m21","202","even","NW_S_COMP","ARIDILM","1983","314982","311727","313479","127366","NA","NA","NA","NA","NA","312228","NA","NA","NA","311227","NA","311199","2149","315383","NA","NA","NA","312268","1983","2135","NA","NA","312853","312876","311199","312226","312248","morph21_Oliver/Morris","42","30712","45","yes","1920","9"
"350","","93.47826086956522","93.47826086956522","680.0434782608696","680.0434782608696","black","no","xpyriment","legacy","legacy","0","205","NA","uniform","NA","NA","NA","1","undefined","1","0","45","45","45","0","45","45","45","NA","0","45","NA","NA","0","45","NA","45","0","45","NA","NA","NA","45","0","0","NA","NA","45","45","45","45","45","46","z","Tue Jun 13 13:31:07 2023","Executes Python code","yes","m21-ba-lexicalDecision.osexp","C:\Users\mpike1\Desktop","no","mono","no","18","no","white","no","yes","1080","legacy","45","45","C:/Users/mpike1/Desktop/subject-202.csv","xpyriment","Lentiform Loewenfeld","3.3.11","0","z","NA","NA","NA","NA","return","z","570","NA","NA","NA","NA","125215","570","2","legacy","1024","2","48000","-16","AB_m21","202","even","NW_S_SIMP","ACREMENT","1983","318640","316901","313479","127366","NA","NA","NA","NA","NA","317402","NA","NA","NA","316400","NA","316371","2149","318990","NA","NA","NA","317442","1983","2135","NA","NA","318013","318037","316371","317402","317422","morph21_Oliver/Morris","43","31282","46","yes","1920","16"
"350","","93.61702127659575","93.61702127659575","686.063829787234","686.063829787234","black","no","xpyriment","legacy","legacy","0","203","NA","uniform","NA","NA","NA","1","undefined","1","0","46","46","46","0","46","46","46","NA","0","46","NA","NA","0","46","NA","46","0","46","NA","NA","NA","46","0","0","NA","NA","46","46","46","46","46","47","z","Tue Jun 13 13:31:07 2023","Executes Python code","yes","m21-ba-lexicalDecision.osexp","C:\Users\mpike1\Desktop","no","mono","no","18","no","white","no","yes","1080","legacy","46","46","C:/Users/mpike1/Desktop/subject-202.csv","xpyriment","Lentiform Loewenfeld","3.3.11","0","z","NA","NA","NA","NA","return","z","963","NA","NA","NA","NA","125215","963","2","legacy","1024","2","48000","-16","AB_m21","202","even","NW_S_COMP","FIENDILM","1983","322644","320509","313479","127366","NA","NA","NA","NA","NA","321010","NA","NA","NA","320008","NA","319979","2149","322994","NA","NA","NA","321050","1983","2135","NA","NA","322014","322040","319979","321009","321030","morph21_Oliver/Morris","44","32245","47","yes","1920","24"
"400","","91.66666666666667","91.66666666666667","696.7708333333334","696.7708333333334","black","no","xpyriment","legacy","legacy","0","203","NA","uniform","NA","NA","NA","0","undefined","0","0","47","47","47","0","47","47","47","NA","0","47","NA","NA","0","47","NA","47","0","47","NA","NA","NA","47","0","0","NA","NA","47","47","47","47","47","48","z","Tue Jun 13 13:31:07 2023","Executes Python code","yes","m21-ba-lexicalDecision.osexp","C:\Users\mpike1\Desktop","no","mono","no","18","no","white","no","yes","1080","legacy","47","47","C:/Users/mpike1/Desktop/subject-202.csv","xpyriment","Lentiform Loewenfeld","3.3.11","0","None","NA","NA","NA","NA","return","None","1200","NA","NA","NA","NA","125215","1200","2","legacy","1024","2","48000","-16","AB_m21","202","even","NW_S_COMP","TRUENELS","1983","328367","324493","326861","127366","NA","NA","NA","NA","NA","324993","NA","NA","NA","323992","NA","323967","2149","328767","NA","NA","NA","325033","1983","2135","NA","NA","326233","326257","323967","324993","325013","morph21_Oliver/Morris","44","33445","48","yes","1920","15"
"250","","91.83673469387755","91.83673469387755","693.1428571428571","693.1428571428571","black","no","xpyriment","legacy","legacy","0","201","NA","uniform","NA","NA","NA","1","undefined","1","0","48","48","48","0","48","48","48","NA","0","48","NA","NA","0","48","NA","48","0","48","NA","NA","NA","48","0","0","NA","NA","48","48","48","48","48","49","/","Tue Jun 13 13:31:07 2023","Executes Python code","yes","m21-ba-lexicalDecision.osexp","C:\Users\mpike1\Desktop","no","mono","no","18","no","white","no","yes","1080","legacy","48","48","C:/Users/mpike1/Desktop/subject-202.csv","xpyriment","Lentiform Loewenfeld","3.3.11","0","/","NA","NA","NA","NA","return","/","519","NA","NA","NA","NA","125215","519","2","legacy","1024","2","48000","-16","AB_m21","202","even","CW_S","SEEKER","1983","332003","330314","326861","127366","NA","NA","NA","NA","NA","330814","NA","NA","NA","329814","NA","329784","2149","332253","NA","NA","NA","330854","1983","2135","NA","NA","331374","331398","329784","330814","330834","morph21_Oliver/Morris","45","33964","49","yes","1920","16"
"250","","92","92","695.58","695.58","black","no","xpyriment","legacy","legacy","0","208","NA","uniform","NA","NA","NA","1","undefined","1","0","49","49","49","0","49","49","49","NA","0","49","NA","NA","0","49","NA","49","0","49","NA","NA","NA","49","0","0","NA","NA","49","49","49","49","49","50","z","Tue Jun 13 13:31:07 2023","Executes Python code","yes","m21-ba-lexicalDecision.osexp","C:\Users\mpike1\Desktop","no","mono","no","18","no","white","no","yes","1080","legacy","49","49","C:/Users/mpike1/Desktop/subject-202.csv","xpyriment","Lentiform Loewenfeld","3.3.11","0","z","NA","NA","NA","NA","return","z","815","NA","NA","NA","NA","125215","815","2","legacy","1024","2","48000","-16","AB_m21","202","even","FILL_NW","BUWL","1983","335761","333778","326861","127366","NA","NA","NA","NA","NA","334278","NA","NA","NA","333277","NA","333248","2149","336011","NA","NA","NA","334318","1983","2135","NA","NA","335134","335157","333248","334278","334298","morph21_Oliver/Morris","46","34779","50","yes","1920","9"
"250","","92.15686274509804","92.15686274509804","694.3333333333334","694.3333333333334","black","no","xpyriment","legacy","legacy","0","204","NA","uniform","NA","NA","NA","1","undefined","1","0","50","50","50","0","50","50","50","NA","0","50","NA","NA","0","50","NA","50","0","50","NA","NA","NA","50","0","0","NA","NA","50","50","50","50","50","51","z","Tue Jun 13 13:31:07 2023","Executes Python code","yes","m21-ba-lexicalDecision.osexp","C:\Users\mpike1\Desktop","no","mono","no","18","no","white","no","yes","1080","legacy","50","50","C:/Users/mpike1/Desktop/subject-202.csv","xpyriment","Lentiform Loewenfeld","3.3.11","0","z","NA","NA","NA","NA","return","z","632","NA","NA","NA","NA","125215","632","2","legacy","1024","2","48000","-16","AB_m21","202","even","NW_L_COMP","MUDLA","1983","340817","337511","339313","127366","NA","NA","NA","NA","NA","338011","NA","NA","NA","337010","NA","336985","2149","341067","NA","NA","NA","338053","1983","2135","NA","NA","338685","338709","336985","338011","338032","morph21_Oliver/Morris","47","35411","51","yes","1920","12"
"250","","92.3076923076923","92.3076923076923","690.5576923076923","690.5576923076923","black","no","xpyriment","legacy","legacy","0","207","NA","uniform","NA","NA","NA","1","undefined","1","0","51","51","51","0","51","51","51","NA","0","51","NA","NA","0","51","NA","51","0","51","NA","NA","NA","51","0","0","NA","NA","51","51","51","51","51","52","/","Tue Jun 13 13:31:07 2023","Executes Python code","yes","m21-ba-lexicalDecision.osexp","C:\Users\mpike1\Desktop","no","mono","no","18","no","white","no","yes","1080","legacy","51","51","C:/Users/mpike1/Desktop/subject-202.csv","xpyriment","Lentiform Loewenfeld","3.3.11","0","/","NA","NA","NA","NA","return","/","498","NA","NA","NA","NA","125215","498","2","legacy","1024","2","48000","-16","AB_m21","202","even","FILL_W","PREACH","1983","344234","342565","339313","127366","NA","NA","NA","NA","NA","343066","NA","NA","NA","342064","NA","342041","2149","344484","NA","NA","NA","343107","1983","2135","NA","NA","343606","343629","342041","343066","343087","morph21_Oliver/Morris","48","35909","52","yes","1920","7"
"250","","92.45283018867924","92.45283018867924","690.622641509434","690.622641509434","black","no","xpyriment","legacy","legacy","0","206","NA","uniform","NA","NA","NA","1","undefined","1","0","52","52","52","0","52","52","52","NA","0","52","NA","NA","0","52","NA","52","0","52","NA","NA","NA","52","0","0","NA","NA","52","52","52","52","52","53","z","Tue Jun 13 13:31:07 2023","Executes Python code","yes","m21-ba-lexicalDecision.osexp","C:\Users\mpike1\Desktop","no","mono","no","18","no","white","no","yes","1080","legacy","52","52","C:/Users/mpike1/Desktop/subject-202.csv","xpyriment","Lentiform Loewenfeld","3.3.11","0","z","NA","NA","NA","NA","return","z","694","NA","NA","NA","NA","125215","694","2","legacy","1024","2","48000","-16","AB_m21","202","even","NW_L_SIMP","BEARIST","1983","347847","345985","339313","127366","NA","NA","NA","NA","NA","346485","NA","NA","NA","345485","NA","345457","2149","348097","NA","NA","NA","346526","1983","2135","NA","NA","347221","347244","345457","346485","346506","morph21_Oliver/Morris","49","36603","53","yes","1920","25"
"300","","92.5925925925926","92.5925925925926","689.2592592592592","689.2592592592592","black","no","xpyriment","legacy","legacy","0","205","NA","uniform","NA","NA","NA","1","undefined","1","0","53","53","53","0","53","53","53","NA","0","53","NA","NA","0","53","NA","53","0","53","NA","NA","NA","53","0","0","NA","NA","53","53","53","53","53","54","z","Tue Jun 13 13:31:07 2023","Executes Python code","yes","m21-ba-lexicalDecision.osexp","C:\Users\mpike1\Desktop","no","mono","no","18","no","white","no","yes","1080","legacy","53","53","C:/Users/mpike1/Desktop/subject-202.csv","xpyriment","Lentiform Loewenfeld","3.3.11","0","z","NA","NA","NA","NA","return","z","617","NA","NA","NA","NA","125215","617","2","legacy","1024","2","48000","-16","AB_m21","202","even","NW_S_SIMP","BOLTOUS","1983","352912","349623","351409","127366","NA","NA","NA","NA","NA","350123","NA","NA","NA","349123","NA","349094","2149","353212","NA","NA","NA","350164","1983","2135","NA","NA","350781","350806","349094","350123","350144","morph21_Oliver/Morris","50","37220","54","yes","1920","13"
"250","","92.72727272727273","92.72727272727273","685.5454545454545","685.5454545454545","black","no","xpyriment","legacy","legacy","0","207","NA","uniform","NA","NA","NA","1","undefined","1","0","54","54","54","0","54","54","54","NA","0","54","NA","NA","0","54","NA","54","0","54","NA","NA","NA","54","0","0","NA","NA","54","54","54","54","54","55","/","Tue Jun 13 13:31:07 2023","Executes Python code","yes","m21-ba-lexicalDecision.osexp","C:\Users\mpike1\Desktop","no","mono","no","18","no","white","no","yes","1080","legacy","54","54","C:/Users/mpike1/Desktop/subject-202.csv","xpyriment","Lentiform Loewenfeld","3.3.11","0","/","NA","NA","NA","NA","return","/","485","NA","NA","NA","NA","125215","485","2","legacy","1024","2","48000","-16","AB_m21","202","even","FILL_W","TREAT","1983","356370","354715","351409","127366","NA","NA","NA","NA","NA","355215","NA","NA","NA","354215","NA","354188","2149","356620","NA","NA","NA","355255","1983","2135","NA","NA","355741","355766","354188","355215","355235","morph21_Oliver/Morris","51","37705","55","yes","1920","48"
"250","","92.85714285714286","92.85714285714286","685.3571428571429","685.3571428571429","black","no","xpyriment","legacy","legacy","0","202","NA","uniform","NA","NA","NA","1","undefined","1","0","55","55","55","0","55","55","55","NA","0","55","NA","NA","0","55","NA","55","0","55","NA","NA","NA","55","0","0","NA","NA","55","55","55","55","55","56","/","Tue Jun 13 13:31:07 2023","Executes Python code","yes","m21-ba-lexicalDecision.osexp","C:\Users\mpike1\Desktop","no","mono","no","18","no","white","no","yes","1080","legacy","55","55","C:/Users/mpike1/Desktop/subject-202.csv","xpyriment","Lentiform Loewenfeld","3.3.11","0","/","NA","NA","NA","NA","return","/","675","NA","NA","NA","NA","125215","675","2","legacy","1024","2","48000","-16","AB_m21","202","even","CW_L","DREAMER","1983","359985","358140","351409","127366","NA","NA","NA","NA","NA","358642","NA","NA","NA","357639","NA","357610","2149","360235","NA","NA","NA","358682","1983","2135","NA","NA","359357","359381","357609","358642","358662","morph21_Oliver/Morris","52","38380","56","yes","1920","12"
"250","","92.98245614035088","92.98245614035088","681.1929824561404","681.1929824561404","black","no","xpyriment","legacy","legacy","0","207","NA","uniform","NA","NA","NA","1","undefined","1","0","56","56","56","0","56","56","56","NA","0","56","NA","NA","0","56","NA","56","0","56","NA","NA","NA","56","0","0","NA","NA","56","56","56","56","56","57","/","Tue Jun 13 13:31:07 2023","Executes Python code","yes","m21-ba-lexicalDecision.osexp","C:\Users\mpike1\Desktop","no","mono","no","18","no","white","no","yes","1080","legacy","56","56","C:/Users/mpike1/Desktop/subject-202.csv","xpyriment","Lentiform Loewenfeld","3.3.11","0","/","NA","NA","NA","NA","return","/","448","NA","NA","NA","NA","125215","448","2","legacy","1024","2","48000","-16","AB_m21","202","even","FILL_W","COOK","1983","364847","361728","363344","127366","NA","NA","NA","NA","NA","362228","NA","NA","NA","361228","NA","361205","2149","365097","NA","NA","NA","362269","1983","2135","NA","NA","362718","362741","361205","362228","362249","morph21_Oliver/Morris","53","38828","57","yes","1920","38"
"350","","93.10344827586206","93.10344827586206","681.948275862069","681.948275862069","black","no","xpyriment","legacy","legacy","0","208","NA","uniform","NA","NA","NA","1","undefined","1","0","57","57","57","0","57","57","57","NA","0","57","NA","NA","0","57","NA","57","0","57","NA","NA","NA","57","0","0","NA","NA","57","57","57","57","57","58","z","Tue Jun 13 13:31:07 2023","Executes Python code","yes","m21-ba-lexicalDecision.osexp","C:\Users\mpike1\Desktop","no","mono","no","18","no","white","no","yes","1080","legacy","57","57","C:/Users/mpike1/Desktop/subject-202.csv","xpyriment","Lentiform Loewenfeld","3.3.11","0","z","NA","NA","NA","NA","return","z","725","NA","NA","NA","NA","125215","725","2","legacy","1024","2","48000","-16","AB_m21","202","even","FILL_NW","DASP","1983","368498","366601","363344","127366","NA","NA","NA","NA","NA","367103","NA","NA","NA","366100","NA","366076","2149","368848","NA","NA","NA","367144","1983","2135","NA","NA","367869","367894","366076","367103","367124","morph21_Oliver/Morris","54","39553","58","yes","1920","13"
"350","","93.22033898305085","93.22033898305085","685.7966101694915","685.7966101694915","black","no","xpyriment","legacy","legacy","0","203","NA","uniform","NA","NA","NA","1","undefined","1","0","58","58","58","0","58","58","58","NA","0","58","NA","NA","0","58","NA","58","0","58","NA","NA","NA","58","0","0","NA","NA","58","58","58","58","58","59","z","Tue Jun 13 13:31:07 2023","Executes Python code","yes","m21-ba-lexicalDecision.osexp","C:\Users\mpike1\Desktop","no","mono","no","18","no","white","no","yes","1080","legacy","58","58","C:/Users/mpike1/Desktop/subject-202.csv","xpyriment","Lentiform Loewenfeld","3.3.11","0","z","NA","NA","NA","NA","return","z","909","NA","NA","NA","NA","125215","909","2","legacy","1024","2","48000","-16","AB_m21","202","even","NW_S_COMP","PRINCEMANT","1983","372450","370371","363344","127366","NA","NA","NA","NA","NA","370872","NA","NA","NA","369870","NA","369838","2149","372800","NA","NA","NA","370912","1983","2135","NA","NA","371822","371846","369838","370872","370892","morph21_Oliver/Morris","55","40462","59","yes","1920","17"
"400","","93.33333333333333","93.33333333333333","684.65","684.65","black","no","xpyriment","legacy","legacy","0","208","NA","uniform","NA","NA","NA","1","undefined","1","0","59","59","59","0","59","59","59","NA","0","59","NA","NA","0","59","NA","59","0","59","NA","NA","NA","59","0","0","NA","NA","59","59","59","59","59","60","z","Tue Jun 13 13:31:07 2023","Executes Python code","yes","m21-ba-lexicalDecision.osexp","C:\Users\mpike1\Desktop","no","mono","no","18","no","white","no","yes","1080","legacy","59","59","C:/Users/mpike1/Desktop/subject-202.csv","xpyriment","Lentiform Loewenfeld","3.3.11","0","z","NA","NA","NA","NA","return","z","617","NA","NA","NA","NA","125215","617","2","legacy","1024","2","48000","-16","AB_m21","202","even","FILL_NW","DROES","1983","377583","374294","376080","127366","NA","NA","NA","NA","NA","374794","NA","NA","NA","373794","NA","373770","2149","377983","NA","NA","NA","374835","1983","2135","NA","NA","375453","375478","373770","374794","374815","morph21_Oliver/Morris","56","41079","60","yes","1920","17"
"200","","93.44262295081967","93.44262295081967","683.0819672131148","683.0819672131148","black","no","xpyriment","legacy","legacy","0","208","NA","uniform","NA","NA","NA","1","undefined","1","0","60","60","60","0","60","60","60","NA","0","60","NA","NA","0","60","NA","60","0","60","NA","NA","NA","60","0","0","NA","NA","60","60","60","60","60","61","z","Tue Jun 13 13:31:07 2023","Executes Python code","yes","m21-ba-lexicalDecision.osexp","C:\Users\mpike1\Desktop","no","mono","no","18","no","white","no","yes","1080","legacy","60","60","C:/Users/mpike1/Desktop/subject-202.csv","xpyriment","Lentiform Loewenfeld","3.3.11","0","z","NA","NA","NA","NA","return","z","589","NA","NA","NA","NA","125215","589","2","legacy","1024","2","48000","-16","AB_m21","202","even","FILL_NW","CINDS","1983","381241","379483","376080","127366","NA","NA","NA","NA","NA","379983","NA","NA","NA","378983","NA","378956","2149","381441","NA","NA","NA","380024","1983","2135","NA","NA","380614","380638","378956","379983","380004","morph21_Oliver/Morris","57","41668","61","yes","1920","6"
"250","","93.54838709677419","93.54838709677419","680.9677419354839","680.9677419354839","black","no","xpyriment","legacy","legacy","0","204","NA","uniform","NA","NA","NA","1","undefined","1","0","61","61","61","0","61","61","61","NA","0","61","NA","NA","0","61","NA","61","0","61","NA","NA","NA","61","0","0","NA","NA","61","61","61","61","61","62","z","Tue Jun 13 13:31:07 2023","Executes Python code","yes","m21-ba-lexicalDecision.osexp","C:\Users\mpike1\Desktop","no","mono","no","18","no","white","no","yes","1080","legacy","61","61","C:/Users/mpike1/Desktop/subject-202.csv","xpyriment","Lentiform Loewenfeld","3.3.11","0","z","NA","NA","NA","NA","return","z","552","NA","NA","NA","NA","125215","552","2","legacy","1024","2","48000","-16","AB_m21","202","even","NW_L_COMP","FREENELS","1983","384666","382945","376080","127366","NA","NA","NA","NA","NA","383445","NA","NA","NA","382445","NA","382419","2149","384917","NA","NA","NA","383485","1983","2135","NA","NA","384037","384062","382419","383445","383465","morph21_Oliver/Morris","58","42220","62","yes","1920","15"
"350","","93.65079365079364","93.65079365079364","678.2222222222222","678.2222222222222","black","no","xpyriment","legacy","legacy","0","204","NA","uniform","NA","NA","NA","1","undefined","1","0","62","62","62","0","62","62","62","NA","0","62","NA","NA","0","62","NA","62","0","62","NA","NA","NA","62","0","0","NA","NA","62","62","62","62","62","63","z","Tue Jun 13 13:31:07 2023","Executes Python code","yes","m21-ba-lexicalDecision.osexp","C:\Users\mpike1\Desktop","no","mono","no","18","no","white","no","yes","1080","legacy","62","62","C:/Users/mpike1/Desktop/subject-202.csv","xpyriment","Lentiform Loewenfeld","3.3.11","0","z","NA","NA","NA","NA","return","z","508","NA","NA","NA","NA","125215","508","2","legacy","1024","2","48000","-16","AB_m21","202","even","NW_L_COMP","AGREELA","1983","389592","386412","388089","127366","NA","NA","NA","NA","NA","386912","NA","NA","NA","385912","NA","385882","2149","389942","NA","NA","NA","386953","1983","2135","NA","NA","387462","387486","385882","386912","386933","morph21_Oliver/Morris","59","42728","63","yes","1920","24"
"350","","93.75","93.75","675.875","675.875","black","no","xpyriment","legacy","legacy","0","206","NA","uniform","NA","NA","NA","1","undefined","1","0","63","63","63","0","63","63","63","NA","0","63","NA","NA","0","63","NA","63","0","63","NA","NA","NA","63","0","0","NA","NA","63","63","63","63","63","64","z","Tue Jun 13 13:31:07 2023","Executes Python code","yes","m21-ba-lexicalDecision.osexp","C:\Users\mpike1\Desktop","no","mono","no","18","no","white","no","yes","1080","legacy","63","63","C:/Users/mpike1/Desktop/subject-202.csv","xpyriment","Lentiform Loewenfeld","3.3.11","0","z","NA","NA","NA","NA","return","z","528","NA","NA","NA","NA","125215","528","2","legacy","1024","2","48000","-16","AB_m21","202","even","NW_L_SIMP","WIGISH","1983","393144","391449","388089","127366","NA","NA","NA","NA","NA","391949","NA","NA","NA","390949","NA","390922","2149","393494","NA","NA","NA","391989","1983","2135","NA","NA","392518","392541","390922","391949","391969","morph21_Oliver/Morris","60","43256","64","yes","1920","9"
"250","","93.84615384615384","93.84615384615384","672.5692307692308","672.5692307692308","black","no","xpyriment","legacy","legacy","0","208","NA","uniform","NA","NA","NA","1","undefined","1","0","64","64","64","0","64","64","64","NA","0","64","NA","NA","0","64","NA","64","0","64","NA","NA","NA","64","0","0","NA","NA","64","64","64","64","64","65","z","Tue Jun 13 13:31:07 2023","Executes Python code","yes","m21-ba-lexicalDecision.osexp","C:\Users\mpike1\Desktop","no","mono","no","18","no","white","no","yes","1080","legacy","64","64","C:/Users/mpike1/Desktop/subject-202.csv","xpyriment","Lentiform Loewenfeld","3.3.11","0","z","NA","NA","NA","NA","return","z","461","NA","NA","NA","NA","125215","461","2","legacy","1024","2","48000","-16","AB_m21","202","even","FILL_NW","PLAODS","1983","396624","394995","388089","127366","NA","NA","NA","NA","NA","395495","NA","NA","NA","394495","NA","394472","2149","396874","NA","NA","NA","395536","1983","2135","NA","NA","395998","396021","394472","395495","395516","morph21_Oliver/Morris","61","43717","65","yes","1920","37"
"350","","93.93939393939394","93.93939393939394","671.6666666666666","671.6666666666666","black","no","xpyriment","legacy","legacy","0","202","NA","uniform","NA","NA","NA","1","undefined","1","0","65","65","65","0","65","65","65","NA","0","65","NA","NA","0","65","NA","65","0","65","NA","NA","NA","65","0","0","NA","NA","65","65","65","65","65","66","/","Tue Jun 13 13:31:07 2023","Executes Python code","yes","m21-ba-lexicalDecision.osexp","C:\Users\mpike1\Desktop","no","mono","no","18","no","white","no","yes","1080","legacy","65","65","C:/Users/mpike1/Desktop/subject-202.csv","xpyriment","Lentiform Loewenfeld","3.3.11","0","/","NA","NA","NA","NA","return","/","613","NA","NA","NA","NA","125215","613","2","legacy","1024","2","48000","-16","AB_m21","202","even","CW_L","GUARDING","1983","401675","398388","400172","127366","NA","NA","NA","NA","NA","398888","NA","NA","NA","397888","NA","397861","2149","402025","NA","NA","NA","398928","1983","2135","NA","NA","399542","399567","397861","398888","398908","morph21_Oliver/Morris","62","44330","66","yes","1920","26"
"350","","94.02985074626865","94.02985074626865","671.8656716417911","671.8656716417911","black","no","xpyriment","legacy","legacy","0","202","NA","uniform","NA","NA","NA","1","undefined","1","0","66","66","66","0","66","66","66","NA","0","66","NA","NA","0","66","NA","66","0","66","NA","NA","NA","66","0","0","NA","NA","66","66","66","66","66","67","/","Tue Jun 13 13:31:07 2023","Executes Python code","yes","m21-ba-lexicalDecision.osexp","C:\Users\mpike1\Desktop","no","mono","no","18","no","white","no","yes","1080","legacy","66","66","C:/Users/mpike1/Desktop/subject-202.csv","xpyriment","Lentiform Loewenfeld","3.3.11","0","/","NA","NA","NA","NA","return","/","685","NA","NA","NA","NA","125215","685","2","legacy","1024","2","48000","-16","AB_m21","202","even","CW_L","BARKER","1983","405393","403540","400172","127366","NA","NA","NA","NA","NA","404040","NA","NA","NA","403039","NA","403013","2149","405744","NA","NA","NA","404080","1983","2135","NA","NA","404766","404789","403013","404040","404060","morph21_Oliver/Morris","63","45015","67","yes","1920","2"
"350","","94.11764705882354","94.11764705882354","673.2352941176471","673.2352941176471","black","no","xpyriment","legacy","legacy","0","201","NA","uniform","NA","NA","NA","1","undefined","1","0","67","67","67","0","67","67","67","NA","0","67","NA","NA","0","67","NA","67","0","67","NA","NA","NA","67","0","0","NA","NA","67","67","67","67","67","68","/","Tue Jun 13 13:31:07 2023","Executes Python code","yes","m21-ba-lexicalDecision.osexp","C:\Users\mpike1\Desktop","no","mono","no","18","no","white","no","yes","1080","legacy","67","67","C:/Users/mpike1/Desktop/subject-202.csv","xpyriment","Lentiform Loewenfeld","3.3.11","0","/","NA","NA","NA","NA","return","/","765","NA","NA","NA","NA","125215","765","2","legacy","1024","2","48000","-16","AB_m21","202","even","CW_S","DULLNESS","1983","409179","407241","400172","127366","NA","NA","NA","NA","NA","407744","NA","NA","NA","406739","NA","406713","2149","409529","NA","NA","NA","407784","1983","2135","NA","NA","408550","408575","406713","407743","407764","morph21_Oliver/Morris","64","45780","68","yes","1920","43"
"400","","94.20289855072464","94.20289855072464","671.8115942028985","671.8115942028985","black","no","xpyriment","legacy","legacy","0","201","NA","uniform","NA","NA","NA","1","undefined","1","0","68","68","68","0","68","68","68","NA","0","68","NA","NA","0","68","NA","68","0","68","NA","NA","NA","68","0","0","NA","NA","68","68","68","68","68","69","/","Tue Jun 13 13:31:07 2023","Executes Python code","yes","m21-ba-lexicalDecision.osexp","C:\Users\mpike1\Desktop","no","mono","no","18","no","white","no","yes","1080","legacy","68","68","C:/Users/mpike1/Desktop/subject-202.csv","xpyriment","Lentiform Loewenfeld","3.3.11","0","/","NA","NA","NA","NA","return","/","575","NA","NA","NA","NA","125215","575","2","legacy","1024","2","48000","-16","AB_m21","202","even","CW_S","RAIDER","1983","414297","411050","412794","127366","NA","NA","NA","NA","NA","411550","NA","NA","NA","410549","NA","410523","2149","414697","NA","NA","NA","411590","1983","2135","NA","NA","412166","412190","410523","411550","411570","morph21_Oliver/Morris","65","46355","69","yes","1920","12"
"200","","94.28571428571429","94.28571428571429","671.1571428571428","671.1571428571428","black","no","xpyriment","legacy","legacy","0","208","NA","uniform","NA","NA","NA","1","undefined","1","0","69","69","69","0","69","69","69","NA","0","69","NA","NA","0","69","NA","69","0","69","NA","NA","NA","69","0","0","NA","NA","69","69","69","69","69","70","z","Tue Jun 13 13:31:07 2023","Executes Python code","yes","m21-ba-lexicalDecision.osexp","C:\Users\mpike1\Desktop","no","mono","no","18","no","white","no","yes","1080","legacy","69","69","C:/Users/mpike1/Desktop/subject-202.csv","xpyriment","Lentiform Loewenfeld","3.3.11","0","z","NA","NA","NA","NA","return","z","626","NA","NA","NA","NA","125215","626","2","legacy","1024","2","48000","-16","AB_m21","202","even","FILL_NW","PORDS","1983","417992","416197","412794","127366","NA","NA","NA","NA","NA","416698","NA","NA","NA","415695","NA","415673","2149","418193","NA","NA","NA","416739","1983","2135","NA","NA","417366","417389","415673","416698","416719","morph21_Oliver/Morris","66","46981","70","yes","1920","39"
"200","","94.36619718309859","94.36619718309859","670.7042253521126","670.7042253521126","black","no","xpyriment","legacy","legacy","0","201","NA","uniform","NA","NA","NA","1","undefined","1","0","70","70","70","0","70","70","70","NA","0","70","NA","NA","0","70","NA","70","0","70","NA","NA","NA","70","0","0","NA","NA","70","70","70","70","70","71","/","Tue Jun 13 13:31:07 2023","Executes Python code","yes","m21-ba-lexicalDecision.osexp","C:\Users\mpike1\Desktop","no","mono","no","18","no","white","no","yes","1080","legacy","70","70","C:/Users/mpike1/Desktop/subject-202.csv","xpyriment","Lentiform Loewenfeld","3.3.11","0","/","NA","NA","NA","NA","return","/","639","NA","NA","NA","NA","125215","639","2","legacy","1024","2","48000","-16","AB_m21","202","even","CW_S","BOLDNESS","1983","421498","419690","412794","127366","NA","NA","NA","NA","NA","420190","NA","NA","NA","419190","NA","419166","2149","421698","NA","NA","NA","420230","1983","2135","NA","NA","420869","420893","419166","420190","420210","morph21_Oliver/Morris","67","47620","71","yes","1920","41"
"200","","94.44444444444444","94.44444444444444","668.6666666666666","668.6666666666666","black","no","xpyriment","legacy","legacy","0","202","NA","uniform","NA","NA","NA","1","undefined","1","0","71","71","71","0","71","71","71","NA","0","71","NA","NA","0","71","NA","71","0","71","NA","NA","NA","71","0","0","NA","NA","71","71","71","71","71","72","/","Tue Jun 13 13:31:07 2023","Executes Python code","yes","m21-ba-lexicalDecision.osexp","C:\Users\mpike1\Desktop","no","mono","no","18","no","white","no","yes","1080","legacy","71","71","C:/Users/mpike1/Desktop/subject-202.csv","xpyriment","Lentiform Loewenfeld","3.3.11","0","/","NA","NA","NA","NA","return","/","524","NA","NA","NA","NA","125215","524","2","legacy","1024","2","48000","-16","AB_m21","202","even","CW_L","SAILOR","1983","426415","423219","424912","127366","NA","NA","NA","NA","NA","423719","NA","NA","NA","422717","NA","422689","2149","426615","NA","NA","NA","423760","1983","2135","NA","NA","424285","424309","422689","423719","423740","morph21_Oliver/Morris","68","48144","72","yes","1920","43"
"300","","94.52054794520548","94.52054794520548","669.3150684931506","669.3150684931506","black","no","xpyriment","legacy","legacy","0","203","NA","uniform","NA","NA","NA","1","undefined","1","0","72","72","72","0","72","72","72","NA","0","72","NA","NA","0","72","NA","72","0","72","NA","NA","NA","72","0","0","NA","NA","72","72","72","72","72","73","z","Tue Jun 13 13:31:07 2023","Executes Python code","yes","m21-ba-lexicalDecision.osexp","C:\Users\mpike1\Desktop","no","mono","no","18","no","white","no","yes","1080","legacy","72","72","C:/Users/mpike1/Desktop/subject-202.csv","xpyriment","Lentiform Loewenfeld","3.3.11","0","z","NA","NA","NA","NA","return","z","716","NA","NA","NA","NA","125215","716","2","legacy","1024","2","48000","-16","AB_m21","202","even","NW_S_COMP","FIGEL","1983","430002","428116","424912","127366","NA","NA","NA","NA","NA","428616","NA","NA","NA","427615","NA","427589","2149","430302","NA","NA","NA","428657","1983","2135","NA","NA","429374","429397","427589","428616","428637","morph21_Oliver/Morris","69","48860","73","yes","1920","4"
"400","","94.5945945945946","94.5945945945946","669.7162162162163","669.7162162162163","black","no","xpyriment","legacy","legacy","0","208","NA","uniform","NA","NA","NA","1","undefined","1","0","73","73","73","0","73","73","73","NA","0","73","NA","NA","0","73","NA","73","0","73","NA","NA","NA","73","0","0","NA","NA","73","73","73","73","73","74","z","Tue Jun 13 13:31:07 2023","Executes Python code","yes","m21-ba-lexicalDecision.osexp","C:\Users\mpike1\Desktop","no","mono","no","18","no","white","no","yes","1080","legacy","73","73","C:/Users/mpike1/Desktop/subject-202.csv","xpyriment","Lentiform Loewenfeld","3.3.11","0","z","NA","NA","NA","NA","return","z","699","NA","NA","NA","NA","125215","699","2","legacy","1024","2","48000","-16","AB_m21","202","even","FILL_NW","SOISE","1983","433681","431813","424912","127366","NA","NA","NA","NA","NA","432314","NA","NA","NA","431313","NA","431286","2149","434081","NA","NA","NA","432354","1983","2135","NA","NA","433054","433077","431286","432313","432334","morph21_Oliver/Morris","70","49559","74","yes","1920","43"
"350","","94.66666666666667","94.66666666666667","674.5466666666666","674.5466666666666","black","no","xpyriment","legacy","legacy","0","206","NA","uniform","NA","NA","NA","undefined","undefined","1","0","74","74","74","0","74","74","74","NA","0","74","NA","NA","0","74","NA","74","0","74","NA","NA","NA","74","0","0","NA","NA","74","74","74","74","74","75","z","Tue Jun 13 13:31:07 2023","Executes Python code","yes","m21-ba-lexicalDecision.osexp","C:\Users\mpike1\Desktop","no","mono","no","18","no","white","no","yes","1080","legacy","74","74","C:/Users/mpike1/Desktop/subject-202.csv","xpyriment","Lentiform Loewenfeld","3.3.11","0","space","space","NA","NA","NA","return","z","7745","7745","NA","NA","NA","125215","1032","2","legacy","1024","2","48000","-16","AB_m21","202","even","NW_L_SIMP","NUTLY","1983","439291","435585","437786","127366","439644","NA","NA","NA","NA","436085","NA","NA","NA","435085","NA","435057","2149","447390","NA","NA","NA","436125","1983","2135","NA","NA","437158","437181","435057","436085","436105","morph21_Oliver/Morris","71","50591","75","yes","1920","14"
"350","","93.42105263157895","93.42105263157895","681.4605263157895","681.4605263157895","black","no","xpyriment","legacy","legacy","0","206","NA","uniform","NA","NA","NA","0","undefined","0","0","75","75","75","0","75","75","75","NA","0","75","NA","NA","0","75","NA","75","0","75","NA","NA","NA","75","0","0","NA","NA","75","75","75","75","75","76","z","Tue Jun 13 13:31:07 2023","Executes Python code","yes","m21-ba-lexicalDecision.osexp","C:\Users\mpike1\Desktop","no","mono","no","18","no","white","no","yes","1080","legacy","75","75","C:/Users/mpike1/Desktop/subject-202.csv","xpyriment","Lentiform Loewenfeld","3.3.11","0","None","space","NA","NA","NA","return","None","1200","7745","NA","NA","NA","125215","1200","2","legacy","1024","2","48000","-16","AB_m21","202","even","NW_L_SIMP","PICKENCE","1983","451265","448897","437786","127366","439644","NA","NA","NA","NA","449397","NA","NA","NA","448396","NA","448373","2149","451616","NA","NA","NA","449438","1983","2135","NA","NA","450638","450661","448373","449397","449418","morph21_Oliver/Morris","71","51791","76","yes","1920","5"
"200","","92.20779220779221","92.20779220779221","680.2857142857143","680.2857142857143","black","no","xpyriment","legacy","legacy","0","202","NA","uniform","NA","NA","NA","0","undefined","0","0","76","76","76","0","76","76","76","NA","0","76","NA","NA","0","76","NA","76","0","76","NA","NA","NA","76","0","0","NA","NA","76","76","76","76","76","77","/","Tue Jun 13 13:31:07 2023","Executes Python code","yes","m21-ba-lexicalDecision.osexp","C:\Users\mpike1\Desktop","no","mono","no","18","no","white","no","yes","1080","legacy","76","76","C:/Users/mpike1/Desktop/subject-202.csv","xpyriment","Lentiform Loewenfeld","3.3.11","0","z","space","NA","NA","NA","return","z","591","7745","NA","NA","NA","125215","591","2","legacy","1024","2","48000","-16","AB_m21","202","even","CW_L","SHAMEFUL","1983","454874","453113","437786","127366","439644","NA","NA","NA","NA","453613","NA","NA","NA","452613","NA","452587","2149","455074","NA","NA","NA","453654","1983","2135","NA","NA","454245","454270","452587","453613","453634","morph21_Oliver/Morris","71","52382","77","yes","1920","19"
"200","","92.3076923076923","92.3076923076923","680.7307692307693","680.7307692307693","black","no","xpyriment","legacy","legacy","0","208","NA","uniform","NA","NA","NA","1","undefined","1","0","77","77","77","0","77","77","77","NA","0","77","NA","NA","0","77","NA","77","0","77","NA","NA","NA","77","0","0","NA","NA","77","77","77","77","77","78","z","Tue Jun 13 13:31:07 2023","Executes Python code","yes","m21-ba-lexicalDecision.osexp","C:\Users\mpike1\Desktop","no","mono","no","18","no","white","no","yes","1080","legacy","77","77","C:/Users/mpike1/Desktop/subject-202.csv","xpyriment","Lentiform Loewenfeld","3.3.11","0","z","space","NA","NA","NA","return","z","715","7745","NA","NA","NA","125215","715","2","legacy","1024","2","48000","-16","AB_m21","202","even","FILL_NW","FROT","1983","459978","456590","458475","127366","439644","NA","NA","NA","NA","457090","NA","NA","NA","456089","NA","456056","2149","460178","NA","NA","NA","457130","1983","2135","NA","NA","457846","457871","456056","457090","457110","morph21_Oliver/Morris","72","53097","78","yes","1920","22"
"400","","92.40506329113924","92.40506329113924","677.7341772151899","677.7341772151899","black","no","xpyriment","legacy","legacy","0","202","NA","uniform","NA","NA","NA","1","undefined","1","0","78","78","78","0","78","78","78","NA","0","78","NA","NA","0","78","NA","78","0","78","NA","NA","NA","78","0","0","NA","NA","78","78","78","78","78","79","/","Tue Jun 13 13:31:07 2023","Executes Python code","yes","m21-ba-lexicalDecision.osexp","C:\Users\mpike1\Desktop","no","mono","no","18","no","white","no","yes","1080","legacy","78","78","C:/Users/mpike1/Desktop/subject-202.csv","xpyriment","Lentiform Loewenfeld","3.3.11","0","/","space","NA","NA","NA","return","/","444","7745","NA","NA","NA","125215","444","2","legacy","1024","2","48000","-16","AB_m21","202","even","CW_L","COOLING","1983","463346","461732","458475","127366","439644","NA","NA","NA","NA","462232","NA","NA","NA","461231","NA","461201","2149","463746","NA","NA","NA","462273","1983","2135","NA","NA","462718","462742","461201","462232","462253","morph21_Oliver/Morris","73","53541","79","yes","1920","24"
"300","","92.5","92.5","676.8375","676.8375","black","no","xpyriment","legacy","legacy","0","204","NA","uniform","NA","NA","NA","1","undefined","1","0","79","79","79","0","79","79","79","NA","0","79","NA","NA","0","79","NA","79","0","79","NA","NA","NA","79","0","0","NA","NA","79","79","79","79","79","80","z","Tue Jun 13 13:31:07 2023","Executes Python code","yes","m21-ba-lexicalDecision.osexp","C:\Users\mpike1\Desktop","no","mono","no","18","no","white","no","yes","1080","legacy","79","79","C:/Users/mpike1/Desktop/subject-202.csv","xpyriment","Lentiform Loewenfeld","3.3.11","0","z","space","NA","NA","NA","return","z","606","7745","NA","NA","NA","125215","606","2","legacy","1024","2","48000","-16","AB_m21","202","even","NW_L_COMP","SHEETEL","1983","467042","465265","458475","127366","439644","NA","NA","NA","NA","465767","NA","NA","NA","464764","NA","464738","2149","467342","NA","NA","NA","465807","1983","2135","NA","NA","466414","466438","464738","465767","465787","morph21_Oliver/Morris","74","54147","80","yes","1920","5"
"350","","92.5925925925926","92.5925925925926","674.7037037037037","674.7037037037037","black","no","xpyriment","legacy","legacy","0","202","NA","uniform","NA","NA","NA","1","undefined","1","0","80","80","80","0","80","80","80","NA","0","80","NA","NA","0","80","NA","80","0","80","NA","NA","NA","80","0","0","NA","NA","80","80","80","80","80","81","/","Tue Jun 13 13:31:07 2023","Executes Python code","yes","m21-ba-lexicalDecision.osexp","C:\Users\mpike1\Desktop","no","mono","no","18","no","white","no","yes","1080","legacy","80","80","C:/Users/mpike1/Desktop/subject-202.csv","xpyriment","Lentiform Loewenfeld","3.3.11","0","/","space","NA","NA","NA","return","/","504","7745","NA","NA","NA","125215","504","2","legacy","1024","2","48000","-16","AB_m21","202","even","CW_L","JUMPING","1983","472033","468856","470529","127366","439644","NA","NA","NA","NA","469356","NA","NA","NA","468356","NA","468329","2149","472384","NA","NA","NA","469397","1983","2135","NA","NA","469902","469925","468329","469356","469377","morph21_Oliver/Morris","75","54651","81","yes","1920","30"
"200","","91.46341463414635","91.46341463414635","681.109756097561","681.109756097561","black","no","xpyriment","legacy","legacy","0","203","NA","uniform","NA","NA","NA","0","undefined","0","0","81","81","81","0","81","81","81","NA","0","81","NA","NA","0","81","NA","81","0","81","NA","NA","NA","81","0","0","NA","NA","81","81","81","81","81","82","z","Tue Jun 13 13:31:07 2023","Executes Python code","yes","m21-ba-lexicalDecision.osexp","C:\Users\mpike1\Desktop","no","mono","no","18","no","white","no","yes","1080","legacy","81","81","C:/Users/mpike1/Desktop/subject-202.csv","xpyriment","Lentiform Loewenfeld","3.3.11","0","None","space","NA","NA","NA","return","None","1200","7745","NA","NA","NA","125215","1200","2","legacy","1024","2","48000","-16","AB_m21","202","even","NW_S_COMP","PILLIME","1983","476260","473891","470529","127366","439644","NA","NA","NA","NA","474392","NA","NA","NA","473391","NA","473367","2149","476460","NA","NA","NA","474432","1983","2135","NA","NA","475632","475656","473367","474391","474412","morph21_Oliver/Morris","75","55851","82","yes","1920","13"
"250","","91.56626506024097","91.56626506024097","678.9397590361446","678.9397590361446","black","no","xpyriment","legacy","legacy","0","202","NA","uniform","NA","NA","NA","1","undefined","1","0","82","82","82","0","82","82","82","NA","0","82","NA","NA","0","82","NA","82","0","82","NA","NA","NA","82","0","0","NA","NA","82","82","82","82","82","83","/","Tue Jun 13 13:31:07 2023","Executes Python code","yes","m21-ba-lexicalDecision.osexp","C:\Users\mpike1\Desktop","no","mono","no","18","no","white","no","yes","1080","legacy","82","82","C:/Users/mpike1/Desktop/subject-202.csv","xpyriment","Lentiform Loewenfeld","3.3.11","0","/","space","NA","NA","NA","return","/","501","7745","NA","NA","NA","125215","501","2","legacy","1024","2","48000","-16","AB_m21","202","even","CW_L","FLEXIBLE","1983","479634","477963","470529","127366","439644","NA","NA","NA","NA","478463","NA","NA","NA","477463","NA","477440","2149","479884","NA","NA","NA","478504","1983","2135","NA","NA","479006","479029","477440","478463","478484","morph21_Oliver/Morris","76","56352","83","yes","1920","22"
"200","","91.66666666666667","91.66666666666667","676.8095238095239","676.8095238095239","black","no","xpyriment","legacy","legacy","0","201","NA","uniform","NA","NA","NA","1","undefined","1","0","83","83","83","0","83","83","83","NA","0","83","NA","NA","0","83","NA","83","0","83","NA","NA","NA","83","0","0","NA","NA","83","83","83","83","83","84","/","Tue Jun 13 13:31:07 2023","Executes Python code","yes","m21-ba-lexicalDecision.osexp","C:\Users\mpike1\Desktop","no","mono","no","18","no","white","no","yes","1080","legacy","83","83","C:/Users/mpike1/Desktop/subject-202.csv","xpyriment","Lentiform Loewenfeld","3.3.11","0","/","space","NA","NA","NA","return","/","500","7745","NA","NA","NA","125215","500","2","legacy","1024","2","48000","-16","AB_m21","202","even","CW_S","ENJOYMENT","1983","484570","481396","483065","127366","439644","NA","NA","NA","NA","481896","NA","NA","NA","480896","NA","480868","2149","484770","NA","NA","NA","481937","1983","2135","NA","NA","482438","482461","480868","481896","481917","morph21_Oliver/Morris","77","56852","84","yes","1920","40"
"400","","91.76470588235294","91.76470588235294","676.7411764705882","676.7411764705882","black","no","xpyriment","legacy","legacy","0","208","NA","uniform","NA","NA","NA","1","undefined","1","0","84","84","84","0","84","84","84","NA","0","84","NA","NA","0","84","NA","84","0","84","NA","NA","NA","84","0","0","NA","NA","84","84","84","84","84","85","z","Tue Jun 13 13:31:07 2023","Executes Python code","yes","m21-ba-lexicalDecision.osexp","C:\Users\mpike1\Desktop","no","mono","no","18","no","white","no","yes","1080","legacy","84","84","C:/Users/mpike1/Desktop/subject-202.csv","xpyriment","Lentiform Loewenfeld","3.3.11","0","z","space","NA","NA","NA","return","z","671","7745","NA","NA","NA","125215","671","2","legacy","1024","2","48000","-16","AB_m21","202","even","FILL_NW","VELT","1983","488120","486281","483065","127366","439644","NA","NA","NA","NA","486781","NA","NA","NA","485781","NA","485754","2149","488521","NA","NA","NA","486822","1983","2135","NA","NA","487494","487517","485754","486781","486802","morph21_Oliver/Morris","78","57523","85","yes","1920","46"
"200","","91.86046511627907","91.86046511627907","674.2790697674419","674.2790697674419","black","no","xpyriment","legacy","legacy","0","207","NA","uniform","NA","NA","NA","1","undefined","1","0","85","85","85","0","85","85","85","NA","0","85","NA","NA","0","85","NA","85","0","85","NA","NA","NA","85","0","0","NA","NA","85","85","85","85","85","86","/","Tue Jun 13 13:31:07 2023","Executes Python code","yes","m21-ba-lexicalDecision.osexp","C:\Users\mpike1\Desktop","no","mono","no","18","no","white","no","yes","1080","legacy","85","85","C:/Users/mpike1/Desktop/subject-202.csv","xpyriment","Lentiform Loewenfeld","3.3.11","0","/","space","NA","NA","NA","return","/","465","7745","NA","NA","NA","125215","465","2","legacy","1024","2","48000","-16","AB_m21","202","even","FILL_W","WRECK","1983","491657","490023","483065","127366","439644","NA","NA","NA","NA","490523","NA","NA","NA","489523","NA","489500","2149","491857","NA","NA","NA","490564","1983","2135","NA","NA","491030","491054","489500","490523","490544","morph21_Oliver/Morris","79","57988","86","yes","1920","13"
"250","","91.95402298850574","91.95402298850574","673.2758620689655","673.2758620689655","black","no","xpyriment","legacy","legacy","0","203","NA","uniform","NA","NA","NA","1","undefined","1","0","86","86","86","0","86","86","86","NA","0","86","NA","NA","0","86","NA","86","0","86","NA","NA","NA","86","0","0","NA","NA","86","86","86","86","86","87","z","Tue Jun 13 13:31:07 2023","Executes Python code","yes","m21-ba-lexicalDecision.osexp","C:\Users\mpike1\Desktop","no","mono","no","18","no","white","no","yes","1080","legacy","86","86","C:/Users/mpike1/Desktop/subject-202.csv","xpyriment","Lentiform Loewenfeld","3.3.11","0","z","space","NA","NA","NA","return","z","587","7745","NA","NA","NA","125215","587","2","legacy","1024","2","48000","-16","AB_m21","202","even","NW_S_COMP","LIDADY","1983","496616","493357","495114","127366","439644","NA","NA","NA","NA","493857","NA","NA","NA","492856","NA","492833","2149","496866","NA","NA","NA","493897","1983","2135","NA","NA","494485","494511","492833","493857","493877","morph21_Oliver/Morris","80","58575","87","yes","1920","3"
"250","","92.04545454545455","92.04545454545455","670.375","670.375","black","no","xpyriment","legacy","legacy","0","201","NA","uniform","NA","NA","NA","1","undefined","1","0","87","87","87","0","87","87","87","NA","0","87","NA","NA","0","87","NA","87","0","87","NA","NA","NA","87","0","0","NA","NA","87","87","87","87","87","88","/","Tue Jun 13 13:31:07 2023","Executes Python code","yes","m21-ba-lexicalDecision.osexp","C:\Users\mpike1\Desktop","no","mono","no","18","no","white","no","yes","1080","legacy","87","87","C:/Users/mpike1/Desktop/subject-202.csv","xpyriment","Lentiform Loewenfeld","3.3.11","0","/","space","NA","NA","NA","return","/","418","7745","NA","NA","NA","125215","418","2","legacy","1024","2","48000","-16","AB_m21","202","even","CW_S","TUTORING","1983","499952","498365","495114","127366","439644","NA","NA","NA","NA","498866","NA","NA","NA","497864","NA","497840","2149","500202","NA","NA","NA","498907","1983","2135","NA","NA","499326","499349","497840","498866","498887","morph21_Oliver/Morris","81","58993","88","yes","1920","27"
"300","","92.13483146067416","92.13483146067416","672.5056179775281","672.5056179775281","black","no","xpyriment","legacy","legacy","0","205","NA","uniform","NA","NA","NA","1","undefined","1","0","88","88","88","0","88","88","88","NA","0","88","NA","NA","0","88","NA","88","0","88","NA","NA","NA","88","0","0","NA","NA","88","88","88","88","88","89","z","Tue Jun 13 13:31:07 2023","Executes Python code","yes","m21-ba-lexicalDecision.osexp","C:\Users\mpike1\Desktop","no","mono","no","18","no","white","no","yes","1080","legacy","88","88","C:/Users/mpike1/Desktop/subject-202.csv","xpyriment","Lentiform Loewenfeld","3.3.11","0","z","space","NA","NA","NA","return","z","860","7745","NA","NA","NA","125215","860","2","legacy","1024","2","48000","-16","AB_m21","202","even","NW_S_SIMP","NEXTNESS","1983","503753","501725","495114","127366","439644","NA","NA","NA","NA","502225","NA","NA","NA","501225","NA","501195","2149","504053","NA","NA","NA","502265","1983","2135","NA","NA","503125","503149","501195","502225","502245","morph21_Oliver/Morris","82","59853","89","yes","1920","9"
"250","","92.22222222222223","92.22222222222223","671.0888888888888","671.0888888888888","black","no","xpyriment","legacy","legacy","0","201","NA","uniform","NA","NA","NA","1","undefined","1","0","89","89","89","0","89","89","89","NA","0","89","NA","NA","0","89","NA","89","0","89","NA","NA","NA","89","0","0","NA","NA","89","89","89","89","89","90","/","Tue Jun 13 13:31:07 2023","Executes Python code","yes","m21-ba-lexicalDecision.osexp","C:\Users\mpike1\Desktop","no","mono","no","18","no","white","no","yes","1080","legacy","89","89","C:/Users/mpike1/Desktop/subject-202.csv","xpyriment","Lentiform Loewenfeld","3.3.11","0","/","space","NA","NA","NA","return","/","545","7745","NA","NA","NA","125215","545","2","legacy","1024","2","48000","-16","AB_m21","202","even","CW_S","MOSSY","1983","508777","505558","507274","127366","439644","NA","NA","NA","NA","506059","NA","NA","NA","505057","NA","505034","2149","509027","NA","NA","NA","506100","1983","2135","NA","NA","506646","506669","505034","506059","506080","morph21_Oliver/Morris","83","60398","90","yes","1920","47"
"400","","92.3076923076923","92.3076923076923","669.4065934065934","669.4065934065934","black","no","xpyriment","legacy","legacy","0","202","NA","uniform","NA","NA","NA","1","undefined","1","0","90","90","90","0","90","90","90","NA","0","90","NA","NA","0","90","NA","90","0","90","NA","NA","NA","90","0","0","NA","NA","90","90","90","90","90","91","/","Tue Jun 13 13:31:07 2023","Executes Python code","yes","m21-ba-lexicalDecision.osexp","C:\Users\mpike1\Desktop","no","mono","no","18","no","white","no","yes","1080","legacy","90","90","C:/Users/mpike1/Desktop/subject-202.csv","xpyriment","Lentiform Loewenfeld","3.3.11","0","/","space","NA","NA","NA","return","/","518","7745","NA","NA","NA","125215","518","2","legacy","1024","2","48000","-16","AB_m21","202","even","CW_L","FAITHFUL","1983","512212","510522","507274","127366","439644","NA","NA","NA","NA","511023","NA","NA","NA","510021","NA","509994","2149","512612","NA","NA","NA","511063","1983","2135","NA","NA","511582","511608","509994","511023","511043","morph21_Oliver/Morris","84","60916","91","yes","1920","20"
