"ITI","_prepare","acc","accuracy","average_response_time","avg_rt","background","bidi","canvas_backend","clock_backend","color_backend","compensation","cond_trig","condtrigtime","coordinates","coroutines_cycles","coroutines_duration","coroutines_mean_cycle_duration","correct","correct_instructions_1","correct_new_keyboard_response_1","count_AB_m21","count_ITI","count_blank_screen","count_blink_screen","count_block1","count_break1","count_break2","count_break3_1","count_canvas","count_close_port","count_cond_trigger","count_correct_trigger","count_def_chain","count_end_screen","count_fixation_1","count_getting_started","count_inc_counter","count_instructions_1","count_logger","count_logscript","count_new_inline_script","count_new_inline_script_2","count_new_keyboard_response_1","count_open_port","count_reset_counter_prep","count_reset_counter_run","count_reset_counter_run_1","count_response_trigger_trial","count_responsescreen","count_sequence","count_target_present","count_word_trigger","counter","cresp","datetime","description","disable_garbage_collection","experiment_file","experiment_path","font_bold","font_family","font_italic","font_size","font_underline","foreground","form_clicks","fullscreen","height","keyboard_backend","live_row","live_row_block1","logfile","mouse_backend","opensesame_codename","opensesame_version","repeat_cycle","response","response_break1","response_break2","response_break3_1","response_end_screen","response_instructions_1","response_new_keyboard_response_1","response_time","response_time_break1","response_time_break2","response_time_break3_1","response_time_end_screen","response_time_instructions_1","response_time_new_keyboard_response_1","round_decimals","sampler_backend","sound_buf_size","sound_channels","sound_freq","sound_sample_size","start","subject_nr","subject_parity","targ_type","target","time_AB_m21","time_ITI","time_blank_screen","time_blink_screen","time_block1","time_break1","time_break2","time_break3_1","time_canvas","time_close_port","time_cond_trigger","time_correct_trigger","time_def_chain","time_end_screen","time_fixation_1","time_getting_started","time_inc_counter","time_instructions_1","time_logger","time_logscript","time_new_inline_script","time_new_inline_script_2","time_new_keyboard_response_1","time_open_port","time_reset_counter_prep","time_reset_counter_run","time_reset_counter_run_1","time_response_trigger_trial","time_responsescreen","time_sequence","time_target_present","time_word_trigger","title","total_correct","total_response_time","total_responses","uniform_coordinates","width","word_trig"
"300","","0","0","1200","1200","black","no","xpyriment","legacy","legacy","0","205","NA","uniform","NA","NA","NA","0","undefined","0","0","0","0","0","0","0","0","0","NA","0","0","NA","NA","0","0","NA","0","0","0","NA","NA","NA","0","0","0","NA","NA","0","0","0","0","0","1","z","Mon Apr 22 16:43:03 2024","Executes Python code","yes","m21-ba-lexicalDecision.osexp","C:\Users\ekealey\Desktop","no","mono","no","18","no","white","no","yes","1080","legacy","0","0","C:/Users/ekealey/Desktop/subject-244.csv","xpyriment","Lentiform Loewenfeld","3.3.11","0","None","NA","NA","NA","NA","space","None","1200","NA","NA","NA","NA","91885","1200","2","legacy","1024","2","48000","-16","AB_m21","244","even","NW_S_SIMP","YIELDIST","1786","98184","95814","NA","93837","NA","NA","NA","NA","NA","96314","NA","NA","NA","95313","NA","95281","1950","98484","NA","NA","NA","96355","1786","1936","NA","NA","97555","97581","95281","96314","96335","morph21_Oliver/Morris","0","1200","1","yes","1920","20"
"200","","0","0","1200","1200","black","no","xpyriment","legacy","legacy","0","203","NA","uniform","NA","NA","NA","0","undefined","0","0","1","1","1","0","1","1","1","NA","0","1","NA","NA","0","1","NA","1","0","1","NA","NA","NA","1","0","0","NA","NA","1","1","1","1","1","2","z","Mon Apr 22 16:43:03 2024","Executes Python code","yes","m21-ba-lexicalDecision.osexp","C:\Users\ekealey\Desktop","no","mono","no","18","no","white","no","yes","1080","legacy","1","1","C:/Users/ekealey/Desktop/subject-244.csv","xpyriment","Lentiform Loewenfeld","3.3.11","0","None","NA","NA","NA","NA","space","None","1200","NA","NA","NA","NA","91885","1200","2","legacy","1024","2","48000","-16","AB_m21","244","even","NW_S_COMP","ELMILT","1786","102466","100099","NA","93837","NA","NA","NA","NA","NA","100600","NA","NA","NA","99599","NA","99573","1950","102667","NA","NA","NA","100640","1786","1936","NA","NA","101840","101863","99573","100600","100620","morph21_Oliver/Morris","0","2400","2","yes","1920","10"
"350","","33.333333333333336","33.333333333333336","1139","1139","black","no","xpyriment","legacy","legacy","0","207","NA","uniform","NA","NA","NA","1","undefined","1","0","2","2","2","0","2","2","2","NA","0","2","NA","NA","0","2","NA","2","0","2","NA","NA","NA","2","0","0","NA","NA","2","2","2","2","2","3","/","Mon Apr 22 16:43:03 2024","Executes Python code","yes","m21-ba-lexicalDecision.osexp","C:\Users\ekealey\Desktop","no","mono","no","18","no","white","no","yes","1080","legacy","2","2","C:/Users/ekealey/Desktop/subject-244.csv","xpyriment","Lentiform Loewenfeld","3.3.11","0","/","NA","NA","NA","NA","space","/","1017","NA","NA","NA","NA","91885","1017","2","legacy","1024","2","48000","-16","AB_m21","244","even","FILL_W","WEIRD","1786","107915","104222","106411","93837","NA","NA","NA","NA","NA","104722","NA","NA","NA","103722","NA","103690","1950","108265","NA","NA","NA","104763","1786","1936","NA","NA","105780","105806","103690","104722","104743","morph21_Oliver/Morris","1","3417","3","yes","1920","2"
"400","","50","50","1145.5","1145.5","black","no","xpyriment","legacy","legacy","0","201","NA","uniform","NA","NA","NA","1","undefined","1","0","3","3","3","0","3","3","3","NA","0","3","NA","NA","0","3","NA","3","0","3","NA","NA","NA","3","0","0","NA","NA","3","3","3","3","3","4","/","Mon Apr 22 16:43:03 2024","Executes Python code","yes","m21-ba-lexicalDecision.osexp","C:\Users\ekealey\Desktop","no","mono","no","18","no","white","no","yes","1080","legacy","3","3","C:/Users/ekealey/Desktop/subject-244.csv","xpyriment","Lentiform Loewenfeld","3.3.11","0","/","NA","NA","NA","NA","space","/","1165","NA","NA","NA","NA","91885","1165","2","legacy","1024","2","48000","-16","AB_m21","244","even","CW_S","DIETARY","1786","112185","109850","106411","93837","NA","NA","NA","NA","NA","110351","NA","NA","NA","109347","NA","109320","1950","112585","NA","NA","NA","110391","1786","1936","NA","NA","111557","111581","109320","110351","110371","morph21_Oliver/Morris","2","4582","4","yes","1920","6"
"200","","60","60","1106.8","1106.8","black","no","xpyriment","legacy","legacy","0","207","NA","uniform","NA","NA","NA","1","undefined","1","0","4","4","4","0","4","4","4","NA","0","4","NA","NA","0","4","NA","4","0","4","NA","NA","NA","4","0","0","NA","NA","4","4","4","4","4","5","/","Mon Apr 22 16:43:03 2024","Executes Python code","yes","m21-ba-lexicalDecision.osexp","C:\Users\ekealey\Desktop","no","mono","no","18","no","white","no","yes","1080","legacy","4","4","C:/Users/ekealey/Desktop/subject-244.csv","xpyriment","Lentiform Loewenfeld","3.3.11","0","/","NA","NA","NA","NA","space","/","952","NA","NA","NA","NA","91885","952","2","legacy","1024","2","48000","-16","AB_m21","244","even","FILL_W","OLD","1786","116280","114158","106411","93837","NA","NA","NA","NA","NA","114659","NA","NA","NA","113657","NA","113629","1950","116480","NA","NA","NA","114699","1786","1936","NA","NA","115652","115677","113629","114658","114679","morph21_Oliver/Morris","3","5534","5","yes","1920","44"
"200","","66.66666666666667","66.66666666666667","1064.5","1064.5","black","no","xpyriment","legacy","legacy","0","208","NA","uniform","NA","NA","NA","1","undefined","1","0","5","5","5","0","5","5","5","NA","0","5","NA","NA","0","5","NA","5","0","5","NA","NA","NA","5","0","0","NA","NA","5","5","5","5","5","6","z","Mon Apr 22 16:43:03 2024","Executes Python code","yes","m21-ba-lexicalDecision.osexp","C:\Users\ekealey\Desktop","no","mono","no","18","no","white","no","yes","1080","legacy","5","5","C:/Users/ekealey/Desktop/subject-244.csv","xpyriment","Lentiform Loewenfeld","3.3.11","0","z","NA","NA","NA","NA","space","z","853","NA","NA","NA","NA","91885","853","2","legacy","1024","2","48000","-16","AB_m21","244","even","FILL_NW","SMADE","1786","121568","118041","120063","93837","NA","NA","NA","NA","NA","118543","NA","NA","NA","117539","NA","117513","1950","121769","NA","NA","NA","118583","1786","1936","NA","NA","119437","119460","117513","118543","118563","morph21_Oliver/Morris","4","6387","6","yes","1920","42"
"200","","57.142857142857146","57.142857142857146","1083.857142857143","1083.857142857143","black","no","xpyriment","legacy","legacy","0","205","NA","uniform","NA","NA","NA","0","undefined","0","0","6","6","6","0","6","6","6","NA","0","6","NA","NA","0","6","NA","6","0","6","NA","NA","NA","6","0","0","NA","NA","6","6","6","6","6","7","z","Mon Apr 22 16:43:03 2024","Executes Python code","yes","m21-ba-lexicalDecision.osexp","C:\Users\ekealey\Desktop","no","mono","no","18","no","white","no","yes","1080","legacy","6","6","C:/Users/ekealey/Desktop/subject-244.csv","xpyriment","Lentiform Loewenfeld","3.3.11","0","None","NA","NA","NA","NA","space","None","1200","NA","NA","NA","NA","91885","1200","2","legacy","1024","2","48000","-16","AB_m21","244","even","NW_S_SIMP","OPPOSEMENT","1786","125692","123326","120063","93837","NA","NA","NA","NA","NA","123826","NA","NA","NA","122826","NA","122793","1950","125892","NA","NA","NA","123866","1786","1936","NA","NA","125066","125089","122793","123826","123846","morph21_Oliver/Morris","4","7587","7","yes","1920","8"
"200","","62.5","62.5","1078.125","1078.125","black","no","xpyriment","legacy","legacy","0","201","NA","uniform","NA","NA","NA","1","undefined","1","0","7","7","7","0","7","7","7","NA","0","7","NA","NA","0","7","NA","7","0","7","NA","NA","NA","7","0","0","NA","NA","7","7","7","7","7","8","/","Mon Apr 22 16:43:03 2024","Executes Python code","yes","m21-ba-lexicalDecision.osexp","C:\Users\ekealey\Desktop","no","mono","no","18","no","white","no","yes","1080","legacy","7","7","C:/Users/ekealey/Desktop/subject-244.csv","xpyriment","Lentiform Loewenfeld","3.3.11","0","/","NA","NA","NA","NA","space","/","1038","NA","NA","NA","NA","91885","1038","2","legacy","1024","2","48000","-16","AB_m21","244","even","CW_S","LISTENER","1786","129663","127455","120063","93837","NA","NA","NA","NA","NA","127955","NA","NA","NA","126955","NA","126927","1950","129863","NA","NA","NA","127997","1786","1936","NA","NA","129036","129060","126927","127955","127976","morph21_Oliver/Morris","5","8625","8","yes","1920","18"
"400","","66.66666666666667","66.66666666666667","1038.4444444444443","1038.4444444444443","black","no","xpyriment","legacy","legacy","0","204","NA","uniform","NA","NA","NA","1","undefined","1","0","8","8","8","0","8","8","8","NA","0","8","NA","NA","0","8","NA","8","0","8","NA","NA","NA","8","0","0","NA","NA","8","8","8","8","8","9","z","Mon Apr 22 16:43:03 2024","Executes Python code","yes","m21-ba-lexicalDecision.osexp","C:\Users\ekealey\Desktop","no","mono","no","18","no","white","no","yes","1080","legacy","8","8","C:/Users/ekealey/Desktop/subject-244.csv","xpyriment","Lentiform Loewenfeld","3.3.11","0","z","NA","NA","NA","NA","space","z","721","NA","NA","NA","NA","91885","721","2","legacy","1024","2","48000","-16","AB_m21","244","even","NW_L_COMP","ANGELITH","1786","134831","131437","133327","93837","NA","NA","NA","NA","NA","131938","NA","NA","NA","130936","NA","130912","1950","135231","NA","NA","NA","131978","1786","1936","NA","NA","132700","132723","130912","131938","131958","morph21_Oliver/Morris","6","9346","9","yes","1920","7"
"250","","70","70","1018.1","1018.1","black","no","xpyriment","legacy","legacy","0","207","NA","uniform","NA","NA","NA","1","undefined","1","0","9","9","9","0","9","9","9","NA","0","9","NA","NA","0","9","NA","9","0","9","NA","NA","NA","9","0","0","NA","NA","9","9","9","9","9","10","/","Mon Apr 22 16:43:03 2024","Executes Python code","yes","m21-ba-lexicalDecision.osexp","C:\Users\ekealey\Desktop","no","mono","no","18","no","white","no","yes","1080","legacy","9","9","C:/Users/ekealey/Desktop/subject-244.csv","xpyriment","Lentiform Loewenfeld","3.3.11","0","/","NA","NA","NA","NA","space","/","835","NA","NA","NA","NA","91885","835","2","legacy","1024","2","48000","-16","AB_m21","244","even","FILL_W","SOFT","1786","138783","136780","133327","93837","NA","NA","NA","NA","NA","137281","NA","NA","NA","136279","NA","136249","1950","139033","NA","NA","NA","137321","1786","1936","NA","NA","138156","138180","136249","137281","137301","morph21_Oliver/Morris","7","10181","10","yes","1920","43"
"250","","72.72727272727273","72.72727272727273","988.0909090909091","988.0909090909091","black","no","xpyriment","legacy","legacy","0","207","NA","uniform","NA","NA","NA","1","undefined","1","0","10","10","10","0","10","10","10","NA","0","10","NA","NA","0","10","NA","10","0","10","NA","NA","NA","10","0","0","NA","NA","10","10","10","10","10","11","/","Mon Apr 22 16:43:03 2024","Executes Python code","yes","m21-ba-lexicalDecision.osexp","C:\Users\ekealey\Desktop","no","mono","no","18","no","white","no","yes","1080","legacy","10","10","C:/Users/ekealey/Desktop/subject-244.csv","xpyriment","Lentiform Loewenfeld","3.3.11","0","/","NA","NA","NA","NA","space","/","688","NA","NA","NA","NA","91885","688","2","legacy","1024","2","48000","-16","AB_m21","244","even","FILL_W","PACK","1786","142503","140646","133327","93837","NA","NA","NA","NA","NA","141146","NA","NA","NA","140144","NA","140117","1950","142753","NA","NA","NA","141187","1786","1936","NA","NA","141876","141900","140117","141146","141167","morph21_Oliver/Morris","8","10869","11","yes","1920","41"
"400","","75","75","969.4166666666666","969.4166666666666","black","no","xpyriment","legacy","legacy","0","207","NA","uniform","NA","NA","NA","1","undefined","1","0","11","11","11","0","11","11","11","NA","0","11","NA","NA","0","11","NA","11","0","11","NA","NA","NA","11","0","0","NA","NA","11","11","11","11","11","12","/","Mon Apr 22 16:43:03 2024","Executes Python code","yes","m21-ba-lexicalDecision.osexp","C:\Users\ekealey\Desktop","no","mono","no","18","no","white","no","yes","1080","legacy","11","11","C:/Users/ekealey/Desktop/subject-244.csv","xpyriment","Lentiform Loewenfeld","3.3.11","0","/","NA","NA","NA","NA","space","/","764","NA","NA","NA","NA","91885","764","2","legacy","1024","2","48000","-16","AB_m21","244","even","FILL_W","QUIT","1786","147729","144291","146226","93837","NA","NA","NA","NA","NA","144791","NA","NA","NA","143791","NA","143758","1950","148129","NA","NA","NA","144832","1786","1936","NA","NA","145597","145621","143758","144791","144812","morph21_Oliver/Morris","9","11633","12","yes","1920","21"
"400","","76.92307692307692","76.92307692307692","973.7692307692307","973.7692307692307","black","no","xpyriment","legacy","legacy","0","208","NA","uniform","NA","NA","NA","1","undefined","1","0","12","12","12","0","12","12","12","NA","0","12","NA","NA","0","12","NA","12","0","12","NA","NA","NA","12","0","0","NA","NA","12","12","12","12","12","13","z","Mon Apr 22 16:43:03 2024","Executes Python code","yes","m21-ba-lexicalDecision.osexp","C:\Users\ekealey\Desktop","no","mono","no","18","no","white","no","yes","1080","legacy","12","12","C:/Users/ekealey/Desktop/subject-244.csv","xpyriment","Lentiform Loewenfeld","3.3.11","0","z","NA","NA","NA","NA","space","z","1026","NA","NA","NA","NA","91885","1026","2","legacy","1024","2","48000","-16","AB_m21","244","even","FILL_NW","SOISE","1786","151913","149717","146226","93837","NA","NA","NA","NA","NA","150217","NA","NA","NA","149217","NA","149191","1950","152313","NA","NA","NA","150258","1786","1936","NA","NA","151285","151310","149191","150217","150238","morph21_Oliver/Morris","10","12659","13","yes","1920","43"
"300","","78.57142857142857","78.57142857142857","974.2142857142857","974.2142857142857","black","no","xpyriment","legacy","legacy","0","205","NA","uniform","NA","NA","NA","1","undefined","1","0","13","13","13","0","13","13","13","NA","0","13","NA","NA","0","13","NA","13","0","13","NA","NA","NA","13","0","0","NA","NA","13","13","13","13","13","14","z","Mon Apr 22 16:43:03 2024","Executes Python code","yes","m21-ba-lexicalDecision.osexp","C:\Users\ekealey\Desktop","no","mono","no","18","no","white","no","yes","1080","legacy","13","13","C:/Users/ekealey/Desktop/subject-244.csv","xpyriment","Lentiform Loewenfeld","3.3.11","0","z","NA","NA","NA","NA","space","z","980","NA","NA","NA","NA","91885","980","2","legacy","1024","2","48000","-16","AB_m21","244","even","NW_S_SIMP","BOLTOUS","1786","156011","153858","146226","93837","NA","NA","NA","NA","NA","154358","NA","NA","NA","153356","NA","153329","1950","156311","NA","NA","NA","154400","1786","1936","NA","NA","155381","155405","153329","154358","154379","morph21_Oliver/Morris","11","13639","14","yes","1920","13"
"250","","80","80","963.7333333333333","963.7333333333333","black","no","xpyriment","legacy","legacy","0","206","NA","uniform","NA","NA","NA","1","undefined","1","0","14","14","14","0","14","14","14","NA","0","14","NA","NA","0","14","NA","14","0","14","NA","NA","NA","14","0","0","NA","NA","14","14","14","14","14","15","z","Mon Apr 22 16:43:03 2024","Executes Python code","yes","m21-ba-lexicalDecision.osexp","C:\Users\ekealey\Desktop","no","mono","no","18","no","white","no","yes","1080","legacy","14","14","C:/Users/ekealey/Desktop/subject-244.csv","xpyriment","Lentiform Loewenfeld","3.3.11","0","z","NA","NA","NA","NA","space","z","817","NA","NA","NA","NA","91885","817","2","legacy","1024","2","48000","-16","AB_m21","244","even","NW_L_SIMP"," DRESSORY","1786","161355","157863","159850","93837","NA","NA","NA","NA","NA","158363","NA","NA","NA","157362","NA","157328","1950","161605","NA","NA","NA","158403","1786","1936","NA","NA","159220","159246","157328","158363","158383","morph21_Oliver/Morris","12","14456","15","yes","1920","21"
"350","","81.25","81.25","963.5625","963.5625","black","no","xpyriment","legacy","legacy","0","205","NA","uniform","NA","NA","NA","1","undefined","1","0","15","15","15","0","15","15","15","NA","0","15","NA","NA","0","15","NA","15","0","15","NA","NA","NA","15","0","0","NA","NA","15","15","15","15","15","16","z","Mon Apr 22 16:43:03 2024","Executes Python code","yes","m21-ba-lexicalDecision.osexp","C:\Users\ekealey\Desktop","no","mono","no","18","no","white","no","yes","1080","legacy","15","15","C:/Users/ekealey/Desktop/subject-244.csv","xpyriment","Lentiform Loewenfeld","3.3.11","0","z","NA","NA","NA","NA","space","z","961","NA","NA","NA","NA","91885","961","2","legacy","1024","2","48000","-16","AB_m21","244","even","NW_S_SIMP","BASKORY","1786","165434","163302","159850","93837","NA","NA","NA","NA","NA","163802","NA","NA","NA","162801","NA","162770","1950","165784","NA","NA","NA","163843","1786","1936","NA","NA","164805","164831","162770","163802","163823","morph21_Oliver/Morris","13","15417","16","yes","1920","10"
"400","","82.3529411764706","82.3529411764706","956.2941176470588","956.2941176470588","black","no","xpyriment","legacy","legacy","0","207","NA","uniform","NA","NA","NA","1","undefined","1","0","16","16","16","0","16","16","16","NA","0","16","NA","NA","0","16","NA","16","0","16","NA","NA","NA","16","0","0","NA","NA","16","16","16","16","16","17","/","Mon Apr 22 16:43:03 2024","Executes Python code","yes","m21-ba-lexicalDecision.osexp","C:\Users\ekealey\Desktop","no","mono","no","18","no","white","no","yes","1080","legacy","16","16","C:/Users/ekealey/Desktop/subject-244.csv","xpyriment","Lentiform Loewenfeld","3.3.11","0","/","NA","NA","NA","NA","space","/","840","NA","NA","NA","NA","91885","840","2","legacy","1024","2","48000","-16","AB_m21","244","even","FILL_W","CHIP","1786","169386","167374","159850","93837","NA","NA","NA","NA","NA","167876","NA","NA","NA","166872","NA","166848","1950","169786","NA","NA","NA","167916","1786","1936","NA","NA","168756","168782","166848","167876","167896","morph21_Oliver/Morris","14","16257","17","yes","1920","11"
"300","","83.33333333333333","83.33333333333333","946.7777777777778","946.7777777777778","black","no","xpyriment","legacy","legacy","0","206","NA","uniform","NA","NA","NA","1","undefined","1","0","17","17","17","0","17","17","17","NA","0","17","NA","NA","0","17","NA","17","0","17","NA","NA","NA","17","0","0","NA","NA","17","17","17","17","17","18","z","Mon Apr 22 16:43:03 2024","Executes Python code","yes","m21-ba-lexicalDecision.osexp","C:\Users\ekealey\Desktop","no","mono","no","18","no","white","no","yes","1080","legacy","17","17","C:/Users/ekealey/Desktop/subject-244.csv","xpyriment","Lentiform Loewenfeld","3.3.11","0","z","NA","NA","NA","NA","space","z","785","NA","NA","NA","NA","91885","785","2","legacy","1024","2","48000","-16","AB_m21","244","even","NW_L_SIMP","BANDARY","1786","174873","171414","173368","93837","NA","NA","NA","NA","NA","171914","NA","NA","NA","170912","NA","170886","1950","175173","NA","NA","NA","171955","1786","1936","NA","NA","172740","172764","170886","171914","171935","morph21_Oliver/Morris","15","17042","18","yes","1920","3"
"250","","84.21052631578948","84.21052631578948","941.7368421052631","941.7368421052631","black","no","xpyriment","legacy","legacy","0","208","NA","uniform","NA","NA","NA","1","undefined","1","0","18","18","18","0","18","18","18","NA","0","18","NA","NA","0","18","NA","18","0","18","NA","NA","NA","18","0","0","NA","NA","18","18","18","18","18","19","z","Mon Apr 22 16:43:03 2024","Executes Python code","yes","m21-ba-lexicalDecision.osexp","C:\Users\ekealey\Desktop","no","mono","no","18","no","white","no","yes","1080","legacy","18","18","C:/Users/ekealey/Desktop/subject-244.csv","xpyriment","Lentiform Loewenfeld","3.3.11","0","z","NA","NA","NA","NA","space","z","851","NA","NA","NA","NA","91885","851","2","legacy","1024","2","48000","-16","AB_m21","244","even","FILL_NW","PIFTH","1786","178863","176842","173368","93837","NA","NA","NA","NA","NA","177344","NA","NA","NA","176340","NA","176311","1950","179113","NA","NA","NA","177384","1786","1936","NA","NA","178236","178260","176311","177344","177364","morph21_Oliver/Morris","16","17893","19","yes","1920","36"
"250","","80","80","950.65","950.65","black","no","xpyriment","legacy","legacy","0","201","NA","uniform","NA","NA","NA","0","undefined","0","0","19","19","19","0","19","19","19","NA","0","19","NA","NA","0","19","NA","19","0","19","NA","NA","NA","19","0","0","NA","NA","19","19","19","19","19","20","/","Mon Apr 22 16:43:03 2024","Executes Python code","yes","m21-ba-lexicalDecision.osexp","C:\Users\ekealey\Desktop","no","mono","no","18","no","white","no","yes","1080","legacy","19","19","C:/Users/ekealey/Desktop/subject-244.csv","xpyriment","Lentiform Loewenfeld","3.3.11","0","z","NA","NA","NA","NA","space","z","1120","NA","NA","NA","NA","91885","1120","2","legacy","1024","2","48000","-16","AB_m21","244","even","CW_S","GRIMLY","1786","183081","180790","173368","93837","NA","NA","NA","NA","NA","181290","NA","NA","NA","180290","NA","180262","1950","183331","NA","NA","NA","181331","1786","1936","NA","NA","182452","182477","180262","181290","181311","morph21_Oliver/Morris","16","19013","20","yes","1920","31"
"300","","80.95238095238095","80.95238095238095","935.4285714285714","935.4285714285714","black","no","xpyriment","legacy","legacy","0","201","NA","uniform","NA","NA","NA","1","undefined","1","0","20","20","20","0","20","20","20","NA","0","20","NA","NA","0","20","NA","20","0","20","NA","NA","NA","20","0","0","NA","NA","20","20","20","20","20","21","/","Mon Apr 22 16:43:03 2024","Executes Python code","yes","m21-ba-lexicalDecision.osexp","C:\Users\ekealey\Desktop","no","mono","no","18","no","white","no","yes","1080","legacy","20","20","C:/Users/ekealey/Desktop/subject-244.csv","xpyriment","Lentiform Loewenfeld","3.3.11","0","/","NA","NA","NA","NA","space","/","631","NA","NA","NA","NA","91885","631","2","legacy","1024","2","48000","-16","AB_m21","244","even","CW_S","GUILTY","1786","188410","185103","186905","93837","NA","NA","NA","NA","NA","185604","NA","NA","NA","184601","NA","184569","1950","188710","NA","NA","NA","185645","1786","1936","NA","NA","186276","186301","184569","185604","185625","morph21_Oliver/Morris","17","19644","21","yes","1920","34"
"300","","81.81818181818181","81.81818181818181","934.9545454545455","934.9545454545455","black","no","xpyriment","legacy","legacy","0","208","NA","uniform","NA","NA","NA","1","undefined","1","0","21","21","21","0","21","21","21","NA","0","21","NA","NA","0","21","NA","21","0","21","NA","NA","NA","21","0","0","NA","NA","21","21","21","21","21","22","z","Mon Apr 22 16:43:03 2024","Executes Python code","yes","m21-ba-lexicalDecision.osexp","C:\Users\ekealey\Desktop","no","mono","no","18","no","white","no","yes","1080","legacy","21","21","C:/Users/ekealey/Desktop/subject-244.csv","xpyriment","Lentiform Loewenfeld","3.3.11","0","z","NA","NA","NA","NA","space","z","925","NA","NA","NA","NA","91885","925","2","legacy","1024","2","48000","-16","AB_m21","244","even","FILL_NW","DASK","1786","192411","190313","186905","93837","NA","NA","NA","NA","NA","190815","NA","NA","NA","189811","NA","189783","1950","192711","NA","NA","NA","190855","1786","1936","NA","NA","191780","191806","189783","190814","190835","morph21_Oliver/Morris","18","20569","22","yes","1920","12"
"250","","82.6086956521739","82.6086956521739","934.4347826086956","934.4347826086956","black","no","xpyriment","legacy","legacy","0","201","NA","uniform","NA","NA","NA","1","undefined","1","0","22","22","22","0","22","22","22","NA","0","22","NA","NA","0","22","NA","22","0","22","NA","NA","NA","22","0","0","NA","NA","22","22","22","22","22","23","/","Mon Apr 22 16:43:03 2024","Executes Python code","yes","m21-ba-lexicalDecision.osexp","C:\Users\ekealey\Desktop","no","mono","no","18","no","white","no","yes","1080","legacy","22","22","C:/Users/ekealey/Desktop/subject-244.csv","xpyriment","Lentiform Loewenfeld","3.3.11","0","/","NA","NA","NA","NA","space","/","923","NA","NA","NA","NA","91885","923","2","legacy","1024","2","48000","-16","AB_m21","244","even","CW_S","MILDNESS","1786","196424","194331","186905","93837","NA","NA","NA","NA","NA","194832","NA","NA","NA","193830","NA","193800","1950","196674","NA","NA","NA","194872","1786","1936","NA","NA","195796","195820","193800","194832","194852","morph21_Oliver/Morris","19","21492","23","yes","1920","42"
"350","","83.33333333333333","83.33333333333333","931.4583333333334","931.4583333333334","black","no","xpyriment","legacy","legacy","0","201","NA","uniform","NA","NA","NA","1","undefined","1","0","23","23","23","0","23","23","23","NA","0","23","NA","NA","0","23","NA","23","0","23","NA","NA","NA","23","0","0","NA","NA","23","23","23","23","23","24","/","Mon Apr 22 16:43:03 2024","Executes Python code","yes","m21-ba-lexicalDecision.osexp","C:\Users\ekealey\Desktop","no","mono","no","18","no","white","no","yes","1080","legacy","23","23","C:/Users/ekealey/Desktop/subject-244.csv","xpyriment","Lentiform Loewenfeld","3.3.11","0","/","NA","NA","NA","NA","space","/","863","NA","NA","NA","NA","91885","863","2","legacy","1024","2","48000","-16","AB_m21","244","even","CW_S","RICHNESS","1786","201785","198246","200281","93837","NA","NA","NA","NA","NA","198747","NA","NA","NA","197744","NA","197710","1950","202135","NA","NA","NA","198788","1786","1936","NA","NA","199652","199677","197709","198747","198768","morph21_Oliver/Morris","20","22355","24","yes","1920","45"
"300","","80","80","942.2","942.2","black","no","xpyriment","legacy","legacy","0","202","NA","uniform","NA","NA","NA","0","undefined","0","0","24","24","24","0","24","24","24","NA","0","24","NA","NA","0","24","NA","24","0","24","NA","NA","NA","24","0","0","NA","NA","24","24","24","24","24","25","/","Mon Apr 22 16:43:03 2024","Executes Python code","yes","m21-ba-lexicalDecision.osexp","C:\Users\ekealey\Desktop","no","mono","no","18","no","white","no","yes","1080","legacy","24","24","C:/Users/ekealey/Desktop/subject-244.csv","xpyriment","Lentiform Loewenfeld","3.3.11","0","None","NA","NA","NA","NA","space","None","1200","NA","NA","NA","NA","91885","1200","2","legacy","1024","2","48000","-16","AB_m21","244","even","CW_L","WEEDY","1786","206098","203730","200281","93837","NA","NA","NA","NA","NA","204230","NA","NA","NA","203230","NA","203200","1950","206398","NA","NA","NA","204271","1786","1936","NA","NA","205471","205495","203200","204230","204251","morph21_Oliver/Morris","20","23555","25","yes","1920","48"
"350","","80.76923076923077","80.76923076923077","949.8846153846154","949.8846153846154","black","no","xpyriment","legacy","legacy","0","201","NA","uniform","NA","NA","NA","1","undefined","1","0","25","25","25","0","25","25","25","NA","0","25","NA","NA","0","25","NA","25","0","25","NA","NA","NA","25","0","0","NA","NA","25","25","25","25","25","26","/","Mon Apr 22 16:43:03 2024","Executes Python code","yes","m21-ba-lexicalDecision.osexp","C:\Users\ekealey\Desktop","no","mono","no","18","no","white","no","yes","1080","legacy","25","25","C:/Users/ekealey/Desktop/subject-244.csv","xpyriment","Lentiform Loewenfeld","3.3.11","0","/","NA","NA","NA","NA","space","/","1142","NA","NA","NA","NA","91885","1142","2","legacy","1024","2","48000","-16","AB_m21","244","even","CW_S","BEARDED","1786","210248","207935","200281","93837","NA","NA","NA","NA","NA","208436","NA","NA","NA","207433","NA","207399","1950","210599","NA","NA","NA","208477","1786","1936","NA","NA","209620","209645","207399","208436","208457","morph21_Oliver/Morris","21","24697","26","yes","1920","8"
"200","","77.77777777777777","77.77777777777777","953.7407407407408","953.7407407407408","black","no","xpyriment","legacy","legacy","0","201","NA","uniform","NA","NA","NA","0","undefined","0","0","26","26","26","0","26","26","26","NA","0","26","NA","NA","0","26","NA","26","0","26","NA","NA","NA","26","0","0","NA","NA","26","26","26","26","26","27","/","Mon Apr 22 16:43:03 2024","Executes Python code","yes","m21-ba-lexicalDecision.osexp","C:\Users\ekealey\Desktop","no","mono","no","18","no","white","no","yes","1080","legacy","26","26","C:/Users/ekealey/Desktop/subject-244.csv","xpyriment","Lentiform Loewenfeld","3.3.11","0","z","NA","NA","NA","NA","space","z","1054","NA","NA","NA","NA","91885","1054","2","legacy","1024","2","48000","-16","AB_m21","244","even","CW_S","LOCALLY","1786","215854","212120","214347","93837","NA","NA","NA","NA","NA","212621","NA","NA","NA","211619","NA","211589","1950","216060","NA","NA","NA","212662","1786","1936","NA","NA","213716","213742","211589","212621","212642","morph21_Oliver/Morris","21","25751","27","yes","1920","37"
"400","","78.57142857142857","78.57142857142857","952.3214285714286","952.3214285714286","black","no","xpyriment","legacy","legacy","0","206","NA","uniform","NA","NA","NA","1","undefined","1","0","27","27","27","0","27","27","27","NA","0","27","NA","NA","0","27","NA","27","0","27","NA","NA","NA","27","0","0","NA","NA","27","27","27","27","27","28","z","Mon Apr 22 16:43:03 2024","Executes Python code","yes","m21-ba-lexicalDecision.osexp","C:\Users\ekealey\Desktop","no","mono","no","18","no","white","no","yes","1080","legacy","27","27","C:/Users/ekealey/Desktop/subject-244.csv","xpyriment","Lentiform Loewenfeld","3.3.11","0","z","NA","NA","NA","NA","space","z","914","NA","NA","NA","NA","91885","914","2","legacy","1024","2","48000","-16","AB_m21","244","even","NW_L_SIMP","CLASSOUS","1786","220166","218083","214347","93837","NA","NA","NA","NA","NA","218585","NA","NA","NA","217580","NA","217552","1950","220566","NA","NA","NA","218625","1786","1936","NA","NA","219540","219563","217552","218585","218605","morph21_Oliver/Morris","22","26665","28","yes","1920","18"
"350","","79.3103448275862","79.3103448275862","955.3448275862069","955.3448275862069","black","no","xpyriment","legacy","legacy","0","201","NA","uniform","NA","NA","NA","1","undefined","1","0","28","28","28","0","28","28","28","NA","0","28","NA","NA","0","28","NA","28","0","28","NA","NA","NA","28","0","0","NA","NA","28","28","28","28","28","29","/","Mon Apr 22 16:43:03 2024","Executes Python code","yes","m21-ba-lexicalDecision.osexp","C:\Users\ekealey\Desktop","no","mono","no","18","no","white","no","yes","1080","legacy","28","28","C:/Users/ekealey/Desktop/subject-244.csv","xpyriment","Lentiform Loewenfeld","3.3.11","0","/","NA","NA","NA","NA","space","/","1040","NA","NA","NA","NA","91885","1040","2","legacy","1024","2","48000","-16","AB_m21","244","even","CW_S","DENSELY","1786","224358","222150","214347","93837","NA","NA","NA","NA","NA","222651","NA","NA","NA","221648","NA","221622","1950","224708","NA","NA","NA","222691","1786","1936","NA","NA","223732","223755","221622","222651","222671","morph21_Oliver/Morris","23","27705","29","yes","1920","32"
"350","","80","80","945.7333333333333","945.7333333333333","black","no","xpyriment","legacy","legacy","0","207","NA","uniform","NA","NA","NA","1","undefined","1","0","29","29","29","0","29","29","29","NA","0","29","NA","NA","0","29","NA","29","0","29","NA","NA","NA","29","0","0","NA","NA","29","29","29","29","29","30","/","Mon Apr 22 16:43:03 2024","Executes Python code","yes","m21-ba-lexicalDecision.osexp","C:\Users\ekealey\Desktop","no","mono","no","18","no","white","no","yes","1080","legacy","29","29","C:/Users/ekealey/Desktop/subject-244.csv","xpyriment","Lentiform Loewenfeld","3.3.11","0","/","NA","NA","NA","NA","space","/","667","NA","NA","NA","NA","91885","667","2","legacy","1024","2","48000","-16","AB_m21","244","even","FILL_W","LIFT","1786","229630","226291","228127","93837","NA","NA","NA","NA","NA","226792","NA","NA","NA","225790","NA","225763","1950","229980","NA","NA","NA","226832","1786","1936","NA","NA","227500","227523","225763","226792","226812","morph21_Oliver/Morris","24","28372","30","yes","1920","39"
"200","","77.41935483870968","77.41935483870968","953.9354838709677","953.9354838709677","black","no","xpyriment","legacy","legacy","0","208","NA","uniform","NA","NA","NA","0","undefined","0","0","30","30","30","0","30","30","30","NA","0","30","NA","NA","0","30","NA","30","0","30","NA","NA","NA","30","0","0","NA","NA","30","30","30","30","30","31","z","Mon Apr 22 16:43:03 2024","Executes Python code","yes","m21-ba-lexicalDecision.osexp","C:\Users\ekealey\Desktop","no","mono","no","18","no","white","no","yes","1080","legacy","30","30","C:/Users/ekealey/Desktop/subject-244.csv","xpyriment","Lentiform Loewenfeld","3.3.11","0","None","NA","NA","NA","NA","space","None","1200","NA","NA","NA","NA","91885","1200","2","legacy","1024","2","48000","-16","AB_m21","244","even","FILL_NW","TUEER","1786","233921","231554","228127","93837","NA","NA","NA","NA","NA","232054","NA","NA","NA","231052","NA","231020","1950","234121","NA","NA","NA","232095","1786","1936","NA","NA","233295","233318","231020","232054","232075","morph21_Oliver/Morris","24","29572","31","yes","1920","44"
"350","","78.125","78.125","954.96875","954.96875","black","no","xpyriment","legacy","legacy","0","202","NA","uniform","NA","NA","NA","1","undefined","1","0","31","31","31","0","31","31","31","NA","0","31","NA","NA","0","31","NA","31","0","31","NA","NA","NA","31","0","0","NA","NA","31","31","31","31","31","32","/","Mon Apr 22 16:43:03 2024","Executes Python code","yes","m21-ba-lexicalDecision.osexp","C:\Users\ekealey\Desktop","no","mono","no","18","no","white","no","yes","1080","legacy","31","31","C:/Users/ekealey/Desktop/subject-244.csv","xpyriment","Lentiform Loewenfeld","3.3.11","0","/","NA","NA","NA","NA","space","/","987","NA","NA","NA","NA","91885","987","2","legacy","1024","2","48000","-16","AB_m21","244","even","CW_L","BOMBER","1786","237817","235660","228127","93837","NA","NA","NA","NA","NA","236161","NA","NA","NA","235159","NA","235127","1950","238167","NA","NA","NA","236201","1786","1936","NA","NA","237188","237214","235127","236160","236181","morph21_Oliver/Morris","25","30559","32","yes","1920","7"
"200","","78.78787878787878","78.78787878787878","958.4545454545455","958.4545454545455","black","no","xpyriment","legacy","legacy","0","202","NA","uniform","NA","NA","NA","1","undefined","1","0","32","32","32","0","32","32","32","NA","0","32","NA","NA","0","32","NA","32","0","32","NA","NA","NA","32","0","0","NA","NA","32","32","32","32","32","33","/","Mon Apr 22 16:43:03 2024","Executes Python code","yes","m21-ba-lexicalDecision.osexp","C:\Users\ekealey\Desktop","no","mono","no","18","no","white","no","yes","1080","legacy","32","32","C:/Users/ekealey/Desktop/subject-244.csv","xpyriment","Lentiform Loewenfeld","3.3.11","0","/","NA","NA","NA","NA","space","/","1070","NA","NA","NA","NA","91885","1070","2","legacy","1024","2","48000","-16","AB_m21","244","even","CW_L","SAILOR","1786","243451","239704","241946","93837","NA","NA","NA","NA","NA","240206","NA","NA","NA","239202","NA","239170","1950","243651","NA","NA","NA","240246","1786","1936","NA","NA","241316","241342","239170","240206","240226","morph21_Oliver/Morris","26","31629","33","yes","1920","43"
"300","","76.47058823529412","76.47058823529412","965.5588235294117","965.5588235294117","black","no","xpyriment","legacy","legacy","0","208","NA","uniform","NA","NA","NA","0","undefined","0","0","33","33","33","0","33","33","33","NA","0","33","NA","NA","0","33","NA","33","0","33","NA","NA","NA","33","0","0","NA","NA","33","33","33","33","33","34","z","Mon Apr 22 16:43:03 2024","Executes Python code","yes","m21-ba-lexicalDecision.osexp","C:\Users\ekealey\Desktop","no","mono","no","18","no","white","no","yes","1080","legacy","33","33","C:/Users/ekealey/Desktop/subject-244.csv","xpyriment","Lentiform Loewenfeld","3.3.11","0","None","NA","NA","NA","NA","space","None","1200","NA","NA","NA","NA","91885","1200","2","legacy","1024","2","48000","-16","AB_m21","244","even","FILL_NW","TREMP","1786","247579","245206","241946","93837","NA","NA","NA","NA","NA","245709","NA","NA","NA","244704","NA","244675","1950","247879","NA","NA","NA","245749","1786","1936","NA","NA","246949","246974","244675","245709","245729","morph21_Oliver/Morris","26","32829","34","yes","1920","20"
"250","","74.28571428571429","74.28571428571429","972.2571428571429","972.2571428571429","black","no","xpyriment","legacy","legacy","0","201","NA","uniform","NA","NA","NA","0","undefined","0","0","34","34","34","0","34","34","34","NA","0","34","NA","NA","0","34","NA","34","0","34","NA","NA","NA","34","0","0","NA","NA","34","34","34","34","34","35","/","Mon Apr 22 16:43:03 2024","Executes Python code","yes","m21-ba-lexicalDecision.osexp","C:\Users\ekealey\Desktop","no","mono","no","18","no","white","no","yes","1080","legacy","34","34","C:/Users/ekealey/Desktop/subject-244.csv","xpyriment","Lentiform Loewenfeld","3.3.11","0","None","NA","NA","NA","NA","space","None","1200","NA","NA","NA","NA","91885","1200","2","legacy","1024","2","48000","-16","AB_m21","244","even","CW_S","NOTICEABLE","1786","251806","249437","241946","93837","NA","NA","NA","NA","NA","249937","NA","NA","NA","248936","NA","248903","1950","252056","NA","NA","NA","249978","1786","1936","NA","NA","251178","251202","248903","249937","249958","morph21_Oliver/Morris","26","34029","35","yes","1920","3"
"400","","75","75","970.3333333333334","970.3333333333334","black","no","xpyriment","legacy","legacy","0","202","NA","uniform","NA","NA","NA","1","undefined","1","0","35","35","35","0","35","35","35","NA","0","35","NA","NA","0","35","NA","35","0","35","NA","NA","NA","35","0","0","NA","NA","35","35","35","35","35","36","/","Mon Apr 22 16:43:03 2024","Executes Python code","yes","m21-ba-lexicalDecision.osexp","C:\Users\ekealey\Desktop","no","mono","no","18","no","white","no","yes","1080","legacy","35","35","C:/Users/ekealey/Desktop/subject-244.csv","xpyriment","Lentiform Loewenfeld","3.3.11","0","/","NA","NA","NA","NA","space","/","903","NA","NA","NA","NA","91885","903","2","legacy","1024","2","48000","-16","AB_m21","244","even","CW_L","CLEANER","1786","257192","253614","255688","93837","NA","NA","NA","NA","NA","254115","NA","NA","NA","253113","NA","253085","1950","257592","NA","NA","NA","254156","1786","1936","NA","NA","255060","255084","253085","254115","254136","morph21_Oliver/Morris","27","34932","36","yes","1920","15"
"400","","75.67567567567568","75.67567567567568","962.4594594594595","962.4594594594595","black","no","xpyriment","legacy","legacy","0","208","NA","uniform","NA","NA","NA","1","undefined","1","0","36","36","36","0","36","36","36","NA","0","36","NA","NA","0","36","NA","36","0","36","NA","NA","NA","36","0","0","NA","NA","36","36","36","36","36","37","z","Mon Apr 22 16:43:03 2024","Executes Python code","yes","m21-ba-lexicalDecision.osexp","C:\Users\ekealey\Desktop","no","mono","no","18","no","white","no","yes","1080","legacy","36","36","C:/Users/ekealey/Desktop/subject-244.csv","xpyriment","Lentiform Loewenfeld","3.3.11","0","z","NA","NA","NA","NA","space","z","679","NA","NA","NA","NA","91885","679","2","legacy","1024","2","48000","-16","AB_m21","244","even","FILL_NW","ULNS","1786","261022","259174","255688","93837","NA","NA","NA","NA","NA","259676","NA","NA","NA","258673","NA","258644","1950","261422","NA","NA","NA","259716","1786","1936","NA","NA","260396","260419","258644","259676","259696","morph21_Oliver/Morris","28","35611","37","yes","1920","45"
"200","","76.3157894736842","76.3157894736842","954.7105263157895","954.7105263157895","black","no","xpyriment","legacy","legacy","0","207","NA","uniform","NA","NA","NA","1","undefined","1","0","37","37","37","0","37","37","37","NA","0","37","NA","NA","0","37","NA","37","0","37","NA","NA","NA","37","0","0","NA","NA","37","37","37","37","37","38","/","Mon Apr 22 16:43:03 2024","Executes Python code","yes","m21-ba-lexicalDecision.osexp","C:\Users\ekealey\Desktop","no","mono","no","18","no","white","no","yes","1080","legacy","37","37","C:/Users/ekealey/Desktop/subject-244.csv","xpyriment","Lentiform Loewenfeld","3.3.11","0","/","NA","NA","NA","NA","space","/","668","NA","NA","NA","NA","91885","668","2","legacy","1024","2","48000","-16","AB_m21","244","even","FILL_W","WRECK","1786","264807","262969","255688","93837","NA","NA","NA","NA","NA","263471","NA","NA","NA","262468","NA","262443","1950","265008","NA","NA","NA","263512","1786","1936","NA","NA","264181","264204","262443","263471","263492","morph21_Oliver/Morris","29","36279","38","yes","1920","13"
"350","","76.92307692307692","76.92307692307692","954.025641025641","954.025641025641","black","no","xpyriment","legacy","legacy","0","208","NA","uniform","NA","NA","NA","1","undefined","1","0","38","38","38","0","38","38","38","NA","0","38","NA","NA","0","38","NA","38","0","38","NA","NA","NA","38","0","0","NA","NA","38","38","38","38","38","39","z","Mon Apr 22 16:43:03 2024","Executes Python code","yes","m21-ba-lexicalDecision.osexp","C:\Users\ekealey\Desktop","no","mono","no","18","no","white","no","yes","1080","legacy","38","38","C:/Users/ekealey/Desktop/subject-244.csv","xpyriment","Lentiform Loewenfeld","3.3.11","0","z","NA","NA","NA","NA","space","z","928","NA","NA","NA","NA","91885","928","2","legacy","1024","2","48000","-16","AB_m21","244","even","FILL_NW","BLANTH","1786","270186","266582","268682","93837","NA","NA","NA","NA","NA","267084","NA","NA","NA","266079","NA","266053","1950","270536","NA","NA","NA","267124","1786","1936","NA","NA","268052","268078","266053","267083","267104","morph21_Oliver/Morris","30","37207","39","yes","1920","3"
"350","","77.5","77.5","956.4","956.4","black","no","xpyriment","legacy","legacy","0","206","NA","uniform","NA","NA","NA","1","undefined","1","0","39","39","39","0","39","39","39","NA","0","39","NA","NA","0","39","NA","39","0","39","NA","NA","NA","39","0","0","NA","NA","39","39","39","39","39","40","z","Mon Apr 22 16:43:03 2024","Executes Python code","yes","m21-ba-lexicalDecision.osexp","C:\Users\ekealey\Desktop","no","mono","no","18","no","white","no","yes","1080","legacy","39","39","C:/Users/ekealey/Desktop/subject-244.csv","xpyriment","Lentiform Loewenfeld","3.3.11","0","z","NA","NA","NA","NA","space","z","1049","NA","NA","NA","NA","91885","1049","2","legacy","1024","2","48000","-16","AB_m21","244","even","NW_L_SIMP","PICKENCE","1786","274312","272094","268682","93837","NA","NA","NA","NA","NA","272594","NA","NA","NA","271594","NA","271562","1950","274662","NA","NA","NA","272635","1786","1936","NA","NA","273685","273709","271561","272594","272615","morph21_Oliver/Morris","31","38256","40","yes","1920","5"
"400","","78.04878048780488","78.04878048780488","960.9512195121952","960.9512195121952","black","no","xpyriment","legacy","legacy","0","206","NA","uniform","NA","NA","NA","1","undefined","1","0","40","40","40","0","40","40","40","NA","0","40","NA","NA","0","40","NA","40","0","40","NA","NA","NA","40","0","0","NA","NA","40","40","40","40","40","41","z","Mon Apr 22 16:43:03 2024","Executes Python code","yes","m21-ba-lexicalDecision.osexp","C:\Users\ekealey\Desktop","no","mono","no","18","no","white","no","yes","1080","legacy","40","40","C:/Users/ekealey/Desktop/subject-244.csv","xpyriment","Lentiform Loewenfeld","3.3.11","0","z","NA","NA","NA","NA","space","z","1143","NA","NA","NA","NA","91885","1143","2","legacy","1024","2","48000","-16","AB_m21","244","even","NW_L_SIMP","POORITY","1786","278529","276215","268682","93837","NA","NA","NA","NA","NA","276715","NA","NA","NA","275714","NA","275687","1950","278929","NA","NA","NA","276756","1786","1936","NA","NA","277900","277925","275686","276715","276736","morph21_Oliver/Morris","32","39399","41","yes","1920","13"
"250","","78.57142857142857","78.57142857142857","960.8809523809524","960.8809523809524","black","no","xpyriment","legacy","legacy","0","207","NA","uniform","NA","NA","NA","1","undefined","1","0","41","41","41","0","41","41","41","NA","0","41","NA","NA","0","41","NA","41","0","41","NA","NA","NA","41","0","0","NA","NA","41","41","41","41","41","42","/","Mon Apr 22 16:43:03 2024","Executes Python code","yes","m21-ba-lexicalDecision.osexp","C:\Users\ekealey\Desktop","no","mono","no","18","no","white","no","yes","1080","legacy","41","41","C:/Users/ekealey/Desktop/subject-244.csv","xpyriment","Lentiform Loewenfeld","3.3.11","0","/","NA","NA","NA","NA","space","/","958","NA","NA","NA","NA","91885","958","2","legacy","1024","2","48000","-16","AB_m21","244","even","FILL_W","PREACH","1786","284120","280488","282615","93837","NA","NA","NA","NA","NA","280988","NA","NA","NA","279988","NA","279960","1950","284370","NA","NA","NA","281029","1786","1936","NA","NA","281988","282011","279960","280988","281009","morph21_Oliver/Morris","33","40357","42","yes","1920","7"
"250","","76.74418604651163","76.74418604651163","966.4418604651163","966.4418604651163","black","no","xpyriment","legacy","legacy","0","202","NA","uniform","NA","NA","NA","0","undefined","0","0","42","42","42","0","42","42","42","NA","0","42","NA","NA","0","42","NA","42","0","42","NA","NA","NA","42","0","0","NA","NA","42","42","42","42","42","43","/","Mon Apr 22 16:43:03 2024","Executes Python code","yes","m21-ba-lexicalDecision.osexp","C:\Users\ekealey\Desktop","no","mono","no","18","no","white","no","yes","1080","legacy","42","42","C:/Users/ekealey/Desktop/subject-244.csv","xpyriment","Lentiform Loewenfeld","3.3.11","0","None","NA","NA","NA","NA","space","None","1200","NA","NA","NA","NA","91885","1200","2","legacy","1024","2","48000","-16","AB_m21","244","even","CW_L","PUSHER","1786","288317","285948","282615","93837","NA","NA","NA","NA","NA","286449","NA","NA","NA","285447","NA","285419","1950","288567","NA","NA","NA","286489","1786","1936","NA","NA","287689","287713","285419","286449","286469","morph21_Oliver/Morris","33","41557","43","yes","1920","13"
"350","","75","75","971.75","971.75","black","no","xpyriment","legacy","legacy","0","204","NA","uniform","NA","NA","NA","0","undefined","0","0","43","43","43","0","43","43","43","NA","0","43","NA","NA","0","43","NA","43","0","43","NA","NA","NA","43","0","0","NA","NA","43","43","43","43","43","44","z","Mon Apr 22 16:43:03 2024","Executes Python code","yes","m21-ba-lexicalDecision.osexp","C:\Users\ekealey\Desktop","no","mono","no","18","no","white","no","yes","1080","legacy","43","43","C:/Users/ekealey/Desktop/subject-244.csv","xpyriment","Lentiform Loewenfeld","3.3.11","0","None","NA","NA","NA","NA","space","None","1200","NA","NA","NA","NA","91885","1200","2","legacy","1024","2","48000","-16","AB_m21","244","even","NW_L_COMP","INKILM","1786","292478","290108","282615","93837","NA","NA","NA","NA","NA","290610","NA","NA","NA","289606","NA","289582","1950","292828","NA","NA","NA","290650","1786","1936","NA","NA","291850","291874","289582","290610","290630","morph21_Oliver/Morris","33","42757","44","yes","1920","8"
"300","","75.55555555555556","75.55555555555556","973.0444444444445","973.0444444444445","black","no","xpyriment","legacy","legacy","0","206","NA","uniform","NA","NA","NA","1","undefined","1","0","44","44","44","0","44","44","44","NA","0","44","NA","NA","0","44","NA","44","0","44","NA","NA","NA","44","0","0","NA","NA","44","44","44","44","44","45","z","Mon Apr 22 16:43:03 2024","Executes Python code","yes","m21-ba-lexicalDecision.osexp","C:\Users\ekealey\Desktop","no","mono","no","18","no","white","no","yes","1080","legacy","44","44","C:/Users/ekealey/Desktop/subject-244.csv","xpyriment","Lentiform Loewenfeld","3.3.11","0","z","NA","NA","NA","NA","space","z","1030","NA","NA","NA","NA","91885","1030","2","legacy","1024","2","48000","-16","AB_m21","244","even","NW_L_SIMP","BEANISH","1786","298083","294375","296578","93837","NA","NA","NA","NA","NA","294876","NA","NA","NA","293873","NA","293848","1950","298383","NA","NA","NA","294917","1786","1936","NA","NA","295947","295974","293847","294876","294897","morph21_Oliver/Morris","34","43787","45","yes","1920","8"
"400","","76.08695652173913","76.08695652173913","967.9130434782609","967.9130434782609","black","no","xpyriment","legacy","legacy","0","203","NA","uniform","NA","NA","NA","1","undefined","1","0","45","45","45","0","45","45","45","NA","0","45","NA","NA","0","45","NA","45","0","45","NA","NA","NA","45","0","0","NA","NA","45","45","45","45","45","46","z","Mon Apr 22 16:43:03 2024","Executes Python code","yes","m21-ba-lexicalDecision.osexp","C:\Users\ekealey\Desktop","no","mono","no","18","no","white","no","yes","1080","legacy","45","45","C:/Users/ekealey/Desktop/subject-244.csv","xpyriment","Lentiform Loewenfeld","3.3.11","0","z","NA","NA","NA","NA","space","z","737","NA","NA","NA","NA","91885","737","2","legacy","1024","2","48000","-16","AB_m21","244","even","NW_S_COMP","ARIDILM","1786","301856","299948","296578","93837","NA","NA","NA","NA","NA","300450","NA","NA","NA","299446","NA","299415","1950","302257","NA","NA","NA","300490","1786","1936","NA","NA","301228","301253","299415","300449","300470","morph21_Oliver/Morris","35","44524","46","yes","1920","9"
"350","","76.59574468085107","76.59574468085107","970.0851063829788","970.0851063829788","black","no","xpyriment","legacy","legacy","0","208","NA","uniform","NA","NA","NA","1","undefined","1","0","46","46","46","0","46","46","46","NA","0","46","NA","NA","0","46","NA","46","0","46","NA","NA","NA","46","0","0","NA","NA","46","46","46","46","46","47","z","Mon Apr 22 16:43:03 2024","Executes Python code","yes","m21-ba-lexicalDecision.osexp","C:\Users\ekealey\Desktop","no","mono","no","18","no","white","no","yes","1080","legacy","46","46","C:/Users/ekealey/Desktop/subject-244.csv","xpyriment","Lentiform Loewenfeld","3.3.11","0","z","NA","NA","NA","NA","space","z","1070","NA","NA","NA","NA","91885","1070","2","legacy","1024","2","48000","-16","AB_m21","244","even","FILL_NW","DASP","1786","306054","303815","296578","93837","NA","NA","NA","NA","NA","304317","NA","NA","NA","303314","NA","303288","1950","306404","NA","NA","NA","304357","1786","1936","NA","NA","305428","305451","303288","304317","304337","morph21_Oliver/Morris","36","45594","47","yes","1920","13"
"200","","75","75","974.875","974.875","black","no","xpyriment","legacy","legacy","0","201","NA","uniform","NA","NA","NA","0","undefined","0","0","47","47","47","0","47","47","47","NA","0","47","NA","NA","0","47","NA","47","0","47","NA","NA","NA","47","0","0","NA","NA","47","47","47","47","47","48","/","Mon Apr 22 16:43:03 2024","Executes Python code","yes","m21-ba-lexicalDecision.osexp","C:\Users\ekealey\Desktop","no","mono","no","18","no","white","no","yes","1080","legacy","47","47","C:/Users/ekealey/Desktop/subject-244.csv","xpyriment","Lentiform Loewenfeld","3.3.11","0","None","NA","NA","NA","NA","space","None","1200","NA","NA","NA","NA","91885","1200","2","legacy","1024","2","48000","-16","AB_m21","244","even","CW_S","THRUSTER","1786","311833","307959","310328","93837","NA","NA","NA","NA","NA","308460","NA","NA","NA","307459","NA","307430","1950","312033","NA","NA","NA","308501","1786","1936","NA","NA","309701","309725","307430","308460","308481","morph21_Oliver/Morris","36","46794","48","yes","1920","24"
"300","","75.51020408163265","75.51020408163265","973.5510204081633","973.5510204081633","black","no","xpyriment","legacy","legacy","0","206","NA","uniform","NA","NA","NA","1","undefined","1","0","48","48","48","0","48","48","48","NA","0","48","NA","NA","0","48","NA","48","0","48","NA","NA","NA","48","0","0","NA","NA","48","48","48","48","48","49","z","Mon Apr 22 16:43:03 2024","Executes Python code","yes","m21-ba-lexicalDecision.osexp","C:\Users\ekealey\Desktop","no","mono","no","18","no","white","no","yes","1080","legacy","48","48","C:/Users/ekealey/Desktop/subject-244.csv","xpyriment","Lentiform Loewenfeld","3.3.11","0","z","NA","NA","NA","NA","space","z","910","NA","NA","NA","NA","91885","910","2","legacy","1024","2","48000","-16","AB_m21","244","even","NW_L_SIMP","PRAYANCE","1786","315705","313624","310328","93837","NA","NA","NA","NA","NA","314124","NA","NA","NA","313123","NA","313096","1950","316005","NA","NA","NA","314165","1786","1936","NA","NA","315076","315100","313096","314124","314145","morph21_Oliver/Morris","37","47704","49","yes","1920","1"
"300","","76","76","968.64","968.64","black","no","xpyriment","legacy","legacy","0","205","NA","uniform","NA","NA","NA","1","undefined","1","0","49","49","49","0","49","49","49","NA","0","49","NA","NA","0","49","NA","49","0","49","NA","NA","NA","49","0","0","NA","NA","49","49","49","49","49","50","z","Mon Apr 22 16:43:03 2024","Executes Python code","yes","m21-ba-lexicalDecision.osexp","C:\Users\ekealey\Desktop","no","mono","no","18","no","white","no","yes","1080","legacy","49","49","C:/Users/ekealey/Desktop/subject-244.csv","xpyriment","Lentiform Loewenfeld","3.3.11","0","z","NA","NA","NA","NA","space","z","728","NA","NA","NA","NA","91885","728","2","legacy","1024","2","48000","-16","AB_m21","244","even","NW_S_SIMP","TILTARY","1786","319439","317538","310328","93837","NA","NA","NA","NA","NA","318041","NA","NA","NA","317037","NA","317011","1950","319739","NA","NA","NA","318083","1786","1936","NA","NA","318812","318835","317011","318041","318062","morph21_Oliver/Morris","38","48432","50","yes","1920","17"
"200","","76.47058823529412","76.47058823529412","965.6274509803922","965.6274509803922","black","no","xpyriment","legacy","legacy","0","201","NA","uniform","NA","NA","NA","1","undefined","1","0","50","50","50","0","50","50","50","NA","0","50","NA","NA","0","50","NA","50","0","50","NA","NA","NA","50","0","0","NA","NA","50","50","50","50","50","51","/","Mon Apr 22 16:43:03 2024","Executes Python code","yes","m21-ba-lexicalDecision.osexp","C:\Users\ekealey\Desktop","no","mono","no","18","no","white","no","yes","1080","legacy","50","50","C:/Users/ekealey/Desktop/subject-244.csv","xpyriment","Lentiform Loewenfeld","3.3.11","0","/","NA","NA","NA","NA","space","/","815","NA","NA","NA","NA","91885","815","2","legacy","1024","2","48000","-16","AB_m21","244","even","CW_S","BOLDNESS","1786","324851","321359","323345","93837","NA","NA","NA","NA","NA","321859","NA","NA","NA","320859","NA","320829","1950","325051","NA","NA","NA","321900","1786","1936","NA","NA","322716","322740","320829","321859","321880","morph21_Oliver/Morris","39","49247","51","yes","1920","41"
"300","","76.92307692307692","76.92307692307692","962.6923076923077","962.6923076923077","black","no","xpyriment","legacy","legacy","0","208","NA","uniform","NA","NA","NA","1","undefined","1","0","51","51","51","0","51","51","51","NA","0","51","NA","NA","0","51","NA","51","0","51","NA","NA","NA","51","0","0","NA","NA","51","51","51","51","51","52","z","Mon Apr 22 16:43:03 2024","Executes Python code","yes","m21-ba-lexicalDecision.osexp","C:\Users\ekealey\Desktop","no","mono","no","18","no","white","no","yes","1080","legacy","51","51","C:/Users/ekealey/Desktop/subject-244.csv","xpyriment","Lentiform Loewenfeld","3.3.11","0","z","NA","NA","NA","NA","space","z","813","NA","NA","NA","NA","91885","813","2","legacy","1024","2","48000","-16","AB_m21","244","even","FILL_NW","SCURE","1786","328558","326576","323345","93837","NA","NA","NA","NA","NA","327077","NA","NA","NA","326074","NA","326045","1950","328858","NA","NA","NA","327118","1786","1936","NA","NA","327932","327955","326045","327077","327098","morph21_Oliver/Morris","40","50060","52","yes","1920","41"
"300","","77.35849056603773","77.35849056603773","960.3207547169811","960.3207547169811","black","no","xpyriment","legacy","legacy","0","208","NA","uniform","NA","NA","NA","1","undefined","1","0","52","52","52","0","52","52","52","NA","0","52","NA","NA","0","52","NA","52","0","52","NA","NA","NA","52","0","0","NA","NA","52","52","52","52","52","53","z","Mon Apr 22 16:43:03 2024","Executes Python code","yes","m21-ba-lexicalDecision.osexp","C:\Users\ekealey\Desktop","no","mono","no","18","no","white","no","yes","1080","legacy","52","52","C:/Users/ekealey/Desktop/subject-244.csv","xpyriment","Lentiform Loewenfeld","3.3.11","0","z","NA","NA","NA","NA","space","z","837","NA","NA","NA","NA","91885","837","2","legacy","1024","2","48000","-16","AB_m21","244","even","FILL_NW","KEMT","1786","332384","330377","323345","93837","NA","NA","NA","NA","NA","330878","NA","NA","NA","329876","NA","329849","1950","332684","NA","NA","NA","330918","1786","1936","NA","NA","331756","331780","329849","330878","330898","morph21_Oliver/Morris","41","50897","53","yes","1920","32"
"350","","77.77777777777777","77.77777777777777","955.4074074074074","955.4074074074074","black","no","xpyriment","legacy","legacy","0","202","NA","uniform","NA","NA","NA","1","undefined","1","0","53","53","53","0","53","53","53","NA","0","53","NA","NA","0","53","NA","53","0","53","NA","NA","NA","53","0","0","NA","NA","53","53","53","53","53","54","/","Mon Apr 22 16:43:03 2024","Executes Python code","yes","m21-ba-lexicalDecision.osexp","C:\Users\ekealey\Desktop","no","mono","no","18","no","white","no","yes","1080","legacy","53","53","C:/Users/ekealey/Desktop/subject-244.csv","xpyriment","Lentiform Loewenfeld","3.3.11","0","/","NA","NA","NA","NA","space","/","695","NA","NA","NA","NA","91885","695","2","legacy","1024","2","48000","-16","AB_m21","244","even","CW_L","PAINTER","1786","337586","334215","336082","93837","NA","NA","NA","NA","NA","334715","NA","NA","NA","333713","NA","333683","1950","337936","NA","NA","NA","334756","1786","1936","NA","NA","335452","335477","333683","334715","334736","morph21_Oliver/Morris","42","51592","54","yes","1920","18"
"250","","76.36363636363636","76.36363636363636","957.7454545454545","957.7454545454545","black","no","xpyriment","legacy","legacy","0","201","NA","uniform","NA","NA","NA","0","undefined","0","0","54","54","54","0","54","54","54","NA","0","54","NA","NA","0","54","NA","54","0","54","NA","NA","NA","54","0","0","NA","NA","54","54","54","54","54","55","/","Mon Apr 22 16:43:03 2024","Executes Python code","yes","m21-ba-lexicalDecision.osexp","C:\Users\ekealey\Desktop","no","mono","no","18","no","white","no","yes","1080","legacy","54","54","C:/Users/ekealey/Desktop/subject-244.csv","xpyriment","Lentiform Loewenfeld","3.3.11","0","z","NA","NA","NA","NA","space","z","1084","NA","NA","NA","NA","91885","1084","2","legacy","1024","2","48000","-16","AB_m21","244","even","CW_S","JAILER","1786","341734","339481","336082","93837","NA","NA","NA","NA","NA","339983","NA","NA","NA","338979","NA","338950","1950","341984","NA","NA","NA","340023","1786","1936","NA","NA","341108","341131","338950","339983","340003","morph21_Oliver/Morris","42","52676","55","yes","1920","13"
"250","","76.78571428571429","76.78571428571429","956.4464285714286","956.4464285714286","black","no","xpyriment","legacy","legacy","0","201","NA","uniform","NA","NA","NA","1","undefined","1","0","55","55","55","0","55","55","55","NA","0","55","NA","NA","0","55","NA","55","0","55","NA","NA","NA","55","0","0","NA","NA","55","55","55","55","55","56","/","Mon Apr 22 16:43:03 2024","Executes Python code","yes","m21-ba-lexicalDecision.osexp","C:\Users\ekealey\Desktop","no","mono","no","18","no","white","no","yes","1080","legacy","55","55","C:/Users/ekealey/Desktop/subject-244.csv","xpyriment","Lentiform Loewenfeld","3.3.11","0","/","NA","NA","NA","NA","space","/","885","NA","NA","NA","NA","91885","885","2","legacy","1024","2","48000","-16","AB_m21","244","even","CW_S","PEAKING","1786","345551","343496","336082","93837","NA","NA","NA","NA","NA","343997","NA","NA","NA","342996","NA","342966","1950","345801","NA","NA","NA","344038","1786","1936","NA","NA","344923","344947","342966","343997","344018","morph21_Oliver/Morris","43","53561","56","yes","1920","28"
"350","","75.43859649122807","75.43859649122807","960.719298245614","960.719298245614","black","no","xpyriment","legacy","legacy","0","202","NA","uniform","NA","NA","NA","0","undefined","0","0","56","56","56","0","56","56","56","NA","0","56","NA","NA","0","56","NA","56","0","56","NA","NA","NA","56","0","0","NA","NA","56","56","56","56","56","57","/","Mon Apr 22 16:43:03 2024","Executes Python code","yes","m21-ba-lexicalDecision.osexp","C:\Users\ekealey\Desktop","no","mono","no","18","no","white","no","yes","1080","legacy","56","56","C:/Users/ekealey/Desktop/subject-244.csv","xpyriment","Lentiform Loewenfeld","3.3.11","0","None","NA","NA","NA","NA","space","None","1200","NA","NA","NA","NA","91885","1200","2","legacy","1024","2","48000","-16","AB_m21","244","even","CW_L","EDITOR","1786","351203","347326","349696","93837","NA","NA","NA","NA","NA","347826","NA","NA","NA","346824","NA","346795","1950","351553","NA","NA","NA","347867","1786","1936","NA","NA","349067","349093","346794","347826","347847","morph21_Oliver/Morris","43","54761","57","yes","1920","45"
"350","","75.86206896551724","75.86206896551724","960.9655172413793","960.9655172413793","black","no","xpyriment","legacy","legacy","0","206","NA","uniform","NA","NA","NA","1","undefined","1","0","57","57","57","0","57","57","57","NA","0","57","NA","NA","0","57","NA","57","0","57","NA","NA","NA","57","0","0","NA","NA","57","57","57","57","57","58","z","Mon Apr 22 16:43:03 2024","Executes Python code","yes","m21-ba-lexicalDecision.osexp","C:\Users\ekealey\Desktop","no","mono","no","18","no","white","no","yes","1080","legacy","57","57","C:/Users/ekealey/Desktop/subject-244.csv","xpyriment","Lentiform Loewenfeld","3.3.11","0","z","NA","NA","NA","NA","space","z","975","NA","NA","NA","NA","91885","975","2","legacy","1024","2","48000","-16","AB_m21","244","even","NW_L_SIMP","CRITICANCE","1786","355242","353096","349696","93837","NA","NA","NA","NA","NA","353596","NA","NA","NA","352596","NA","352563","1950","355592","NA","NA","NA","353636","1786","1936","NA","NA","354612","354637","352563","353596","353616","morph21_Oliver/Morris","44","55736","58","yes","1920","22"
"300","","76.27118644067797","76.27118644067797","962.8474576271186","962.8474576271186","black","no","xpyriment","legacy","legacy","0","205","NA","uniform","NA","NA","NA","1","undefined","1","0","58","58","58","0","58","58","58","NA","0","58","NA","NA","0","58","NA","58","0","58","NA","NA","NA","58","0","0","NA","NA","58","58","58","58","58","59","z","Mon Apr 22 16:43:03 2024","Executes Python code","yes","m21-ba-lexicalDecision.osexp","C:\Users\ekealey\Desktop","no","mono","no","18","no","white","no","yes","1080","legacy","58","58","C:/Users/ekealey/Desktop/subject-244.csv","xpyriment","Lentiform Loewenfeld","3.3.11","0","z","NA","NA","NA","NA","space","z","1072","NA","NA","NA","NA","91885","1072","2","legacy","1024","2","48000","-16","AB_m21","244","even","NW_S_SIMP","FEVERIZE","1786","359384","357139","349696","93837","NA","NA","NA","NA","NA","357642","NA","NA","NA","356638","NA","356602","1950","359684","NA","NA","NA","357683","1786","1936","NA","NA","358756","358780","356602","357642","357663","morph21_Oliver/Morris","45","56808","59","yes","1920","24"
"350","","76.66666666666667","76.66666666666667","961.3","961.3","black","no","xpyriment","legacy","legacy","0","202","NA","uniform","NA","NA","NA","1","undefined","1","0","59","59","59","0","59","59","59","NA","0","59","NA","NA","0","59","NA","59","0","59","NA","NA","NA","59","0","0","NA","NA","59","59","59","59","59","60","/","Mon Apr 22 16:43:03 2024","Executes Python code","yes","m21-ba-lexicalDecision.osexp","C:\Users\ekealey\Desktop","no","mono","no","18","no","white","no","yes","1080","legacy","59","59","C:/Users/ekealey/Desktop/subject-244.csv","xpyriment","Lentiform Loewenfeld","3.3.11","0","/","NA","NA","NA","NA","space","/","870","NA","NA","NA","NA","91885","870","2","legacy","1024","2","48000","-16","AB_m21","244","even","CW_L","RENTER","1786","364780","361233","363275","93837","NA","NA","NA","NA","NA","361733","NA","NA","NA","360733","NA","360698","1950","365130","NA","NA","NA","361773","1786","1936","NA","NA","362644","362669","360698","361733","361753","morph21_Oliver/Morris","46","57678","60","yes","1920","9"
"250","","77.04918032786885","77.04918032786885","957.8032786885246","957.8032786885246","black","no","xpyriment","legacy","legacy","0","203","NA","uniform","NA","NA","NA","1","undefined","1","0","60","60","60","0","60","60","60","NA","0","60","NA","NA","0","60","NA","60","0","60","NA","NA","NA","60","0","0","NA","NA","60","60","60","60","60","61","z","Mon Apr 22 16:43:03 2024","Executes Python code","yes","m21-ba-lexicalDecision.osexp","C:\Users\ekealey\Desktop","no","mono","no","18","no","white","no","yes","1080","legacy","60","60","C:/Users/ekealey/Desktop/subject-244.csv","xpyriment","Lentiform Loewenfeld","3.3.11","0","z","NA","NA","NA","NA","space","z","748","NA","NA","NA","NA","91885","748","2","legacy","1024","2","48000","-16","AB_m21","244","even","NW_S_COMP","TREASONIME","1786","368590","366672","363275","93837","NA","NA","NA","NA","NA","367175","NA","NA","NA","366171","NA","366139","1950","368841","NA","NA","NA","367215","1786","1936","NA","NA","367963","367987","366139","367175","367195","morph21_Oliver/Morris","47","58426","61","yes","1920","14"
"400","","77.41935483870968","77.41935483870968","954.2258064516129","954.2258064516129","black","no","xpyriment","legacy","legacy","0","207","NA","uniform","NA","NA","NA","1","undefined","1","0","61","61","61","0","61","61","61","NA","0","61","NA","NA","0","61","NA","61","0","61","NA","NA","NA","61","0","0","NA","NA","61","61","61","61","61","62","/","Mon Apr 22 16:43:03 2024","Executes Python code","yes","m21-ba-lexicalDecision.osexp","C:\Users\ekealey\Desktop","no","mono","no","18","no","white","no","yes","1080","legacy","61","61","C:/Users/ekealey/Desktop/subject-244.csv","xpyriment","Lentiform Loewenfeld","3.3.11","0","/","NA","NA","NA","NA","space","/","736","NA","NA","NA","NA","91885","736","2","legacy","1024","2","48000","-16","AB_m21","244","even","FILL_W","DRUNK","1786","372289","370381","363275","93837","NA","NA","NA","NA","NA","370882","NA","NA","NA","369878","NA","369848","1950","372689","NA","NA","NA","370923","1786","1936","NA","NA","371660","371685","369848","370882","370903","morph21_Oliver/Morris","48","59162","62","yes","1920","19"
"400","","77.77777777777777","77.77777777777777","951.2539682539683","951.2539682539683","black","no","xpyriment","legacy","legacy","0","205","NA","uniform","NA","NA","NA","1","undefined","1","0","62","62","62","0","62","62","62","NA","0","62","NA","NA","0","62","NA","62","0","62","NA","NA","NA","62","0","0","NA","NA","62","62","62","62","62","63","z","Mon Apr 22 16:43:03 2024","Executes Python code","yes","m21-ba-lexicalDecision.osexp","C:\Users\ekealey\Desktop","no","mono","no","18","no","white","no","yes","1080","legacy","62","62","C:/Users/ekealey/Desktop/subject-244.csv","xpyriment","Lentiform Loewenfeld","3.3.11","0","z","NA","NA","NA","NA","space","z","767","NA","NA","NA","NA","91885","767","2","legacy","1024","2","48000","-16","AB_m21","244","even","NW_S_SIMP","SCHEMENESS","1786","377670","374231","376166","93837","NA","NA","NA","NA","NA","374731","NA","NA","NA","373731","NA","373697","1950","378070","NA","NA","NA","374772","1786","1936","NA","NA","375540","375563","373697","374731","374752","morph21_Oliver/Morris","49","59929","63","yes","1920","15"
"350","","78.125","78.125","951.859375","951.859375","black","no","xpyriment","legacy","legacy","0","202","NA","uniform","NA","NA","NA","1","undefined","1","0","63","63","63","0","63","63","63","NA","0","63","NA","NA","0","63","NA","63","0","63","NA","NA","NA","63","0","0","NA","NA","63","63","63","63","63","64","/","Mon Apr 22 16:43:03 2024","Executes Python code","yes","m21-ba-lexicalDecision.osexp","C:\Users\ekealey\Desktop","no","mono","no","18","no","white","no","yes","1080","legacy","63","63","C:/Users/ekealey/Desktop/subject-244.csv","xpyriment","Lentiform Loewenfeld","3.3.11","0","/","NA","NA","NA","NA","space","/","990","NA","NA","NA","NA","91885","990","2","legacy","1024","2","48000","-16","AB_m21","244","even","CW_L","PUNCHER","1786","381790","379633","376166","93837","NA","NA","NA","NA","NA","380133","NA","NA","NA","379132","NA","379098","1950","382140","NA","NA","NA","380173","1786","1936","NA","NA","381164","381187","379098","380133","380153","morph21_Oliver/Morris","50","60919","64","yes","1920","1"
"200","","76.92307692307692","76.92307692307692","955.6769230769231","955.6769230769231","black","no","xpyriment","legacy","legacy","0","201","NA","uniform","NA","NA","NA","0","undefined","0","0","64","64","64","0","64","64","64","NA","0","64","NA","NA","0","64","NA","64","0","64","NA","NA","NA","64","0","0","NA","NA","64","64","64","64","64","65","/","Mon Apr 22 16:43:03 2024","Executes Python code","yes","m21-ba-lexicalDecision.osexp","C:\Users\ekealey\Desktop","no","mono","no","18","no","white","no","yes","1080","legacy","64","64","C:/Users/ekealey/Desktop/subject-244.csv","xpyriment","Lentiform Loewenfeld","3.3.11","0","None","NA","NA","NA","NA","space","None","1200","NA","NA","NA","NA","91885","1200","2","legacy","1024","2","48000","-16","AB_m21","244","even","CW_S","AMUSEMENT","1786","386131","383762","376166","93837","NA","NA","NA","NA","NA","384263","NA","NA","NA","383262","NA","383232","1950","386331","NA","NA","NA","384303","1786","1936","NA","NA","385503","385527","383231","384263","384283","morph21_Oliver/Morris","50","62119","65","yes","1920","38"
"400","","77.27272727272727","77.27272727272727","956.6818181818181","956.6818181818181","black","no","xpyriment","legacy","legacy","0","208","NA","uniform","NA","NA","NA","1","undefined","1","0","65","65","65","0","65","65","65","NA","0","65","NA","NA","0","65","NA","65","0","65","NA","NA","NA","65","0","0","NA","NA","65","65","65","65","65","66","z","Mon Apr 22 16:43:03 2024","Executes Python code","yes","m21-ba-lexicalDecision.osexp","C:\Users\ekealey\Desktop","no","mono","no","18","no","white","no","yes","1080","legacy","65","65","C:/Users/ekealey/Desktop/subject-244.csv","xpyriment","Lentiform Loewenfeld","3.3.11","0","z","NA","NA","NA","NA","space","z","1022","NA","NA","NA","NA","91885","1022","2","legacy","1024","2","48000","-16","AB_m21","244","even","FILL_NW","HEND","1786","391729","388032","390223","93837","NA","NA","NA","NA","NA","388532","NA","NA","NA","387531","NA","387506","1950","392129","NA","NA","NA","388573","1786","1936","NA","NA","389596","389620","387506","388532","388553","morph21_Oliver/Morris","51","63141","66","yes","1920","28"
"200","","77.61194029850746","77.61194029850746","960.3134328358209","960.3134328358209","black","no","xpyriment","legacy","legacy","0","203","NA","uniform","NA","NA","NA","1","undefined","1","0","66","66","66","0","66","66","66","NA","0","66","NA","NA","0","66","NA","66","0","66","NA","NA","NA","66","0","0","NA","NA","66","66","66","66","66","67","z","Mon Apr 22 16:43:03 2024","Executes Python code","yes","m21-ba-lexicalDecision.osexp","C:\Users\ekealey\Desktop","no","mono","no","18","no","white","no","yes","1080","legacy","66","66","C:/Users/ekealey/Desktop/subject-244.csv","xpyriment","Lentiform Loewenfeld","3.3.11","0","z","NA","NA","NA","NA","space","z","1200","NA","NA","NA","NA","91885","1200","2","legacy","1024","2","48000","-16","AB_m21","244","even","NW_S_COMP","FANFIL","1786","396074","393702","390223","93837","NA","NA","NA","NA","NA","394203","NA","NA","NA","393202","NA","393177","1950","396274","NA","NA","NA","394243","1786","1936","NA","NA","395443","395469","393177","394203","394223","morph21_Oliver/Morris","52","64341","67","yes","1920","6"
"250","","77.94117647058823","77.94117647058823","958.0441176470588","958.0441176470588","black","no","xpyriment","legacy","legacy","0","206","NA","uniform","NA","NA","NA","1","undefined","1","0","67","67","67","0","67","67","67","NA","0","67","NA","NA","0","67","NA","67","0","67","NA","NA","NA","67","0","0","NA","NA","67","67","67","67","67","68","z","Mon Apr 22 16:43:03 2024","Executes Python code","yes","m21-ba-lexicalDecision.osexp","C:\Users\ekealey\Desktop","no","mono","no","18","no","white","no","yes","1080","legacy","67","67","C:/Users/ekealey/Desktop/subject-244.csv","xpyriment","Lentiform Loewenfeld","3.3.11","0","z","NA","NA","NA","NA","space","z","806","NA","NA","NA","NA","91885","806","2","legacy","1024","2","48000","-16","AB_m21","244","even","NW_L_SIMP","BEARIST","1786","399783","397806","390223","93837","NA","NA","NA","NA","NA","398307","NA","NA","NA","397305","NA","397279","1950","400033","NA","NA","NA","398349","1786","1936","NA","NA","399156","399180","397279","398307","398328","morph21_Oliver/Morris","53","65147","68","yes","1920","25"
"350","","78.26086956521739","78.26086956521739","959.072463768116","959.072463768116","black","no","xpyriment","legacy","legacy","0","202","NA","uniform","NA","NA","NA","1","undefined","1","0","68","68","68","0","68","68","68","NA","0","68","NA","NA","0","68","NA","68","0","68","NA","NA","NA","68","0","0","NA","NA","68","68","68","68","68","69","/","Mon Apr 22 16:43:03 2024","Executes Python code","yes","m21-ba-lexicalDecision.osexp","C:\Users\ekealey\Desktop","no","mono","no","18","no","white","no","yes","1080","legacy","68","68","C:/Users/ekealey/Desktop/subject-244.csv","xpyriment","Lentiform Loewenfeld","3.3.11","0","/","NA","NA","NA","NA","space","/","1029","NA","NA","NA","NA","91885","1029","2","legacy","1024","2","48000","-16","AB_m21","244","even","CW_L","HUNTER","1786","405295","401593","403790","93837","NA","NA","NA","NA","NA","402093","NA","NA","NA","401091","NA","401063","1950","405646","NA","NA","NA","402134","1786","1936","NA","NA","403164","403187","401063","402093","402114","morph21_Oliver/Morris","54","66176","69","yes","1920","10"
"300","","78.57142857142857","78.57142857142857","958.5714285714286","958.5714285714286","black","no","xpyriment","legacy","legacy","0","206","NA","uniform","NA","NA","NA","1","undefined","1","0","69","69","69","0","69","69","69","NA","0","69","NA","NA","0","69","NA","69","0","69","NA","NA","NA","69","0","0","NA","NA","69","69","69","69","69","70","z","Mon Apr 22 16:43:03 2024","Executes Python code","yes","m21-ba-lexicalDecision.osexp","C:\Users\ekealey\Desktop","no","mono","no","18","no","white","no","yes","1080","legacy","69","69","C:/Users/ekealey/Desktop/subject-244.csv","xpyriment","Lentiform Loewenfeld","3.3.11","0","z","NA","NA","NA","NA","space","z","924","NA","NA","NA","NA","91885","924","2","legacy","1024","2","48000","-16","AB_m21","244","even","NW_L_SIMP","TAXFUL","1786","409313","407218","403790","93837","NA","NA","NA","NA","NA","407719","NA","NA","NA","406717","NA","406688","1950","409613","NA","NA","NA","407759","1786","1936","NA","NA","408684","408709","406688","407719","407739","morph21_Oliver/Morris","55","67100","70","yes","1920","6"
"250","","78.87323943661971","78.87323943661971","958.0845070422536","958.0845070422536","black","no","xpyriment","legacy","legacy","0","207","NA","uniform","NA","NA","NA","1","undefined","1","0","70","70","70","0","70","70","70","NA","0","70","NA","NA","0","70","NA","70","0","70","NA","NA","NA","70","0","0","NA","NA","70","70","70","70","70","71","/","Mon Apr 22 16:43:03 2024","Executes Python code","yes","m21-ba-lexicalDecision.osexp","C:\Users\ekealey\Desktop","no","mono","no","18","no","white","no","yes","1080","legacy","70","70","C:/Users/ekealey/Desktop/subject-244.csv","xpyriment","Lentiform Loewenfeld","3.3.11","0","/","NA","NA","NA","NA","space","/","924","NA","NA","NA","NA","91885","924","2","legacy","1024","2","48000","-16","AB_m21","244","even","FILL_W","WEAVE","1786","413264","411170","403790","93837","NA","NA","NA","NA","NA","411671","NA","NA","NA","410670","NA","410644","1950","413514","NA","NA","NA","411711","1786","1936","NA","NA","412636","412661","410644","411671","411691","morph21_Oliver/Morris","56","68024","71","yes","1920","12"
"200","","77.77777777777777","77.77777777777777","961.4444444444445","961.4444444444445","black","no","xpyriment","legacy","legacy","0","207","NA","uniform","NA","NA","NA","0","undefined","0","0","71","71","71","0","71","71","71","NA","0","71","NA","NA","0","71","NA","71","0","71","NA","NA","NA","71","0","0","NA","NA","71","71","71","71","71","72","/","Mon Apr 22 16:43:03 2024","Executes Python code","yes","m21-ba-lexicalDecision.osexp","C:\Users\ekealey\Desktop","no","mono","no","18","no","white","no","yes","1080","legacy","71","71","C:/Users/ekealey/Desktop/subject-244.csv","xpyriment","Lentiform Loewenfeld","3.3.11","0","None","NA","NA","NA","NA","space","None","1200","NA","NA","NA","NA","91885","1200","2","legacy","1024","2","48000","-16","AB_m21","244","even","FILL_W","BLEAK","1786","418923","415049","417418","93837","NA","NA","NA","NA","NA","415550","NA","NA","NA","414548","NA","414521","1950","419123","NA","NA","NA","415590","1786","1936","NA","NA","416790","416813","414521","415550","415570","morph21_Oliver/Morris","56","69224","72","yes","1920","5"
"300","","78.08219178082192","78.08219178082192","959.3424657534247","959.3424657534247","black","no","xpyriment","legacy","legacy","0","201","NA","uniform","NA","NA","NA","1","undefined","1","0","72","72","72","0","72","72","72","NA","0","72","NA","NA","0","72","NA","72","0","72","NA","NA","NA","72","0","0","NA","NA","72","72","72","72","72","73","/","Mon Apr 22 16:43:03 2024","Executes Python code","yes","m21-ba-lexicalDecision.osexp","C:\Users\ekealey\Desktop","no","mono","no","18","no","white","no","yes","1080","legacy","72","72","C:/Users/ekealey/Desktop/subject-244.csv","xpyriment","Lentiform Loewenfeld","3.3.11","0","/","NA","NA","NA","NA","space","/","808","NA","NA","NA","NA","91885","808","2","legacy","1024","2","48000","-16","AB_m21","244","even","CW_S","RISKY","1786","422641","420662","417418","93837","NA","NA","NA","NA","NA","421162","NA","NA","NA","420161","NA","420126","1950","422941","NA","NA","NA","421203","1786","1936","NA","NA","422012","422037","420126","421162","421183","morph21_Oliver/Morris","57","70032","73","yes","1920","50"
"200","","78.37837837837837","78.37837837837837","956.2297297297297","956.2297297297297","black","no","xpyriment","legacy","legacy","0","208","NA","uniform","NA","NA","NA","1","undefined","1","0","73","73","73","0","73","73","73","NA","0","73","NA","NA","0","73","NA","73","0","73","NA","NA","NA","73","0","0","NA","NA","73","73","73","73","73","74","z","Mon Apr 22 16:43:03 2024","Executes Python code","yes","m21-ba-lexicalDecision.osexp","C:\Users\ekealey\Desktop","no","mono","no","18","no","white","no","yes","1080","legacy","73","73","C:/Users/ekealey/Desktop/subject-244.csv","xpyriment","Lentiform Loewenfeld","3.3.11","0","z","NA","NA","NA","NA","space","z","729","NA","NA","NA","NA","91885","729","2","legacy","1024","2","48000","-16","AB_m21","244","even","FILL_NW","HESK","1786","426384","424485","417418","93837","NA","NA","NA","NA","NA","424986","NA","NA","NA","423983","NA","423956","1950","426585","NA","NA","NA","425026","1786","1936","NA","NA","425756","425781","423956","424986","425006","morph21_Oliver/Morris","58","70761","74","yes","1920","29"
"300","","77.33333333333333","77.33333333333333","952.56","952.56","black","no","xpyriment","legacy","legacy","0","206","NA","uniform","NA","NA","NA","undefined","undefined","0","0","74","74","74","0","74","74","74","NA","0","74","NA","NA","0","74","NA","74","0","74","NA","NA","NA","74","0","0","NA","NA","74","74","74","74","74","75","z","Mon Apr 22 16:43:03 2024","Executes Python code","yes","m21-ba-lexicalDecision.osexp","C:\Users\ekealey\Desktop","no","mono","no","18","no","white","no","yes","1080","legacy","74","74","C:/Users/ekealey/Desktop/subject-244.csv","xpyriment","Lentiform Loewenfeld","3.3.11","0","space","space","NA","NA","NA","space","/","13417","13417","NA","NA","NA","91885","681","2","legacy","1024","2","48000","-16","AB_m21","244","even","NW_L_SIMP","LONGNESS","1786","431503","428148","429999","93837","431810","NA","NA","NA","NA","428649","NA","NA","NA","427647","NA","427621","1950","445228","NA","NA","NA","428690","1786","1936","NA","NA","429372","429395","427621","428649","428670","morph21_Oliver/Morris","58","71442","75","yes","1920","17"
"350","","76.3157894736842","76.3157894736842","955.8157894736842","955.8157894736842","black","no","xpyriment","legacy","legacy","0","202","NA","uniform","NA","NA","NA","0","undefined","0","0","75","75","75","0","75","75","75","NA","0","75","NA","NA","0","75","NA","75","0","75","NA","NA","NA","75","0","0","NA","NA","75","75","75","75","75","76","/","Mon Apr 22 16:43:03 2024","Executes Python code","yes","m21-ba-lexicalDecision.osexp","C:\Users\ekealey\Desktop","no","mono","no","18","no","white","no","yes","1080","legacy","75","75","C:/Users/ekealey/Desktop/subject-244.csv","xpyriment","Lentiform Loewenfeld","3.3.11","0","None","space","NA","NA","NA","space","None","1200","13417","NA","NA","NA","91885","1200","2","legacy","1024","2","48000","-16","AB_m21","244","even","CW_L","GUARDING","1786","449147","446775","429999","93837","431810","NA","NA","NA","NA","447276","NA","NA","NA","446273","NA","446242","1950","449498","NA","NA","NA","447317","1786","1936","NA","NA","448517","448543","446242","447276","447296","morph21_Oliver/Morris","58","72642","76","yes","1920","26"
"300","","76.62337662337663","76.62337662337663","952.7922077922078","952.7922077922078","black","no","xpyriment","legacy","legacy","0","206","NA","uniform","NA","NA","NA","1","undefined","1","0","76","76","76","0","76","76","76","NA","0","76","NA","NA","0","76","NA","76","0","76","NA","NA","NA","76","0","0","NA","NA","76","76","76","76","76","77","z","Mon Apr 22 16:43:03 2024","Executes Python code","yes","m21-ba-lexicalDecision.osexp","C:\Users\ekealey\Desktop","no","mono","no","18","no","white","no","yes","1080","legacy","76","76","C:/Users/ekealey/Desktop/subject-244.csv","xpyriment","Lentiform Loewenfeld","3.3.11","0","z","space","NA","NA","NA","space","z","723","13417","NA","NA","NA","91885","723","2","legacy","1024","2","48000","-16","AB_m21","244","even","NW_L_SIMP","EARIST","1786","452943","451051","429999","93837","431810","NA","NA","NA","NA","451551","NA","NA","NA","450550","NA","450511","1950","453243","NA","NA","NA","451592","1786","1936","NA","NA","452315","452340","450510","451551","451572","morph21_Oliver/Morris","59","73365","77","yes","1920","12"
"350","","76.92307692307692","76.92307692307692","951.5897435897435","951.5897435897435","black","no","xpyriment","legacy","legacy","0","206","NA","uniform","NA","NA","NA","1","undefined","1","0","77","77","77","0","77","77","77","NA","0","77","NA","NA","0","77","NA","77","0","77","NA","NA","NA","77","0","0","NA","NA","77","77","77","77","77","78","z","Mon Apr 22 16:43:03 2024","Executes Python code","yes","m21-ba-lexicalDecision.osexp","C:\Users\ekealey\Desktop","no","mono","no","18","no","white","no","yes","1080","legacy","77","77","C:/Users/ekealey/Desktop/subject-244.csv","xpyriment","Lentiform Loewenfeld","3.3.11","0","z","space","NA","NA","NA","space","z","859","13417","NA","NA","NA","91885","859","2","legacy","1024","2","48000","-16","AB_m21","244","even","NW_L_SIMP","HABITIC","1786","458303","454769","456799","93837","431810","NA","NA","NA","NA","455271","NA","NA","NA","454267","NA","454235","1950","458653","NA","NA","NA","455312","1786","1936","NA","NA","456172","456195","454235","455271","455292","morph21_Oliver/Morris","60","74224","78","yes","1920","7"
"250","","77.21518987341773","77.21518987341773","948.1012658227849","948.1012658227849","black","no","xpyriment","legacy","legacy","0","204","NA","uniform","NA","NA","NA","1","undefined","1","0","78","78","78","0","78","78","78","NA","0","78","NA","NA","0","78","NA","78","0","78","NA","NA","NA","78","0","0","NA","NA","78","78","78","78","78","79","z","Mon Apr 22 16:43:03 2024","Executes Python code","yes","m21-ba-lexicalDecision.osexp","C:\Users\ekealey\Desktop","no","mono","no","18","no","white","no","yes","1080","legacy","78","78","C:/Users/ekealey/Desktop/subject-244.csv","xpyriment","Lentiform Loewenfeld","3.3.11","0","z","space","NA","NA","NA","space","z","676","13417","NA","NA","NA","91885","676","2","legacy","1024","2","48000","-16","AB_m21","244","even","NW_L_COMP","TRIPADY","1786","462081","460233","456799","93837","431810","NA","NA","NA","NA","460734","NA","NA","NA","459733","NA","459703","1950","462331","NA","NA","NA","460775","1786","1936","NA","NA","461452","461476","459703","460734","460755","morph21_Oliver/Morris","61","74900","79","yes","1920","2"
"200","","77.5","77.5","948.3125","948.3125","black","no","xpyriment","legacy","legacy","0","208","NA","uniform","NA","NA","NA","1","undefined","1","0","79","79","79","0","79","79","79","NA","0","79","NA","NA","0","79","NA","79","0","79","NA","NA","NA","79","0","0","NA","NA","79","79","79","79","79","80","z","Mon Apr 22 16:43:03 2024","Executes Python code","yes","m21-ba-lexicalDecision.osexp","C:\Users\ekealey\Desktop","no","mono","no","18","no","white","no","yes","1080","legacy","79","79","C:/Users/ekealey/Desktop/subject-244.csv","xpyriment","Lentiform Loewenfeld","3.3.11","0","z","space","NA","NA","NA","space","z","965","13417","NA","NA","NA","91885","965","2","legacy","1024","2","48000","-16","AB_m21","244","even","FILL_NW","HOITS","1786","465984","463849","456799","93837","431810","NA","NA","NA","NA","464350","NA","NA","NA","463347","NA","463321","1950","466184","NA","NA","NA","464390","1786","1936","NA","NA","465356","465380","463321","464350","464370","morph21_Oliver/Morris","62","75865","80","yes","1920","30"
"300","","77.77777777777777","77.77777777777777","947.8641975308642","947.8641975308642","black","no","xpyriment","legacy","legacy","0","201","NA","uniform","NA","NA","NA","1","undefined","1","0","80","80","80","0","80","80","80","NA","0","80","NA","NA","0","80","NA","80","0","80","NA","NA","NA","80","0","0","NA","NA","80","80","80","80","80","81","/","Mon Apr 22 16:43:03 2024","Executes Python code","yes","m21-ba-lexicalDecision.osexp","C:\Users\ekealey\Desktop","no","mono","no","18","no","white","no","yes","1080","legacy","80","80","C:/Users/ekealey/Desktop/subject-244.csv","xpyriment","Lentiform Loewenfeld","3.3.11","0","/","space","NA","NA","NA","space","/","912","13417","NA","NA","NA","91885","912","2","legacy","1024","2","48000","-16","AB_m21","244","even","CW_S","DETECTABLE","1786","471313","467725","469809","93837","431810","NA","NA","NA","NA","468226","NA","NA","NA","467225","NA","467192","1950","471613","NA","NA","NA","468266","1786","1936","NA","NA","469179","469204","467192","468226","468246","morph21_Oliver/Morris","63","76777","81","yes","1920","1"
"350","","78.04878048780488","78.04878048780488","947.7682926829268","947.7682926829268","black","no","xpyriment","legacy","legacy","0","201","NA","uniform","NA","NA","NA","1","undefined","1","0","81","81","81","0","81","81","81","NA","0","81","NA","NA","0","81","NA","81","0","81","NA","NA","NA","81","0","0","NA","NA","81","81","81","81","81","82","/","Mon Apr 22 16:43:03 2024","Executes Python code","yes","m21-ba-lexicalDecision.osexp","C:\Users\ekealey\Desktop","no","mono","no","18","no","white","no","yes","1080","legacy","81","81","C:/Users/ekealey/Desktop/subject-244.csv","xpyriment","Lentiform Loewenfeld","3.3.11","0","/","space","NA","NA","NA","space","/","940","13417","NA","NA","NA","91885","940","2","legacy","1024","2","48000","-16","AB_m21","244","even","CW_S","LENDER","1786","475287","473178","469809","93837","431810","NA","NA","NA","NA","473679","NA","NA","NA","472676","NA","472648","1950","475637","NA","NA","NA","473719","1786","1936","NA","NA","474660","474684","472648","473679","473699","morph21_Oliver/Morris","64","77717","82","yes","1920","11"
"250","","78.3132530120482","78.3132530120482","946.4939759036145","946.4939759036145","black","no","xpyriment","legacy","legacy","0","207","NA","uniform","NA","NA","NA","1","undefined","1","0","82","82","82","0","82","82","82","NA","0","82","NA","NA","0","82","NA","82","0","82","NA","NA","NA","82","0","0","NA","NA","82","82","82","82","82","83","/","Mon Apr 22 16:43:03 2024","Executes Python code","yes","m21-ba-lexicalDecision.osexp","C:\Users\ekealey\Desktop","no","mono","no","18","no","white","no","yes","1080","legacy","82","82","C:/Users/ekealey/Desktop/subject-244.csv","xpyriment","Lentiform Loewenfeld","3.3.11","0","/","space","NA","NA","NA","space","/","842","13417","NA","NA","NA","91885","842","2","legacy","1024","2","48000","-16","AB_m21","244","even","FILL_W","SHIP","1786","479193","477179","469809","93837","431810","NA","NA","NA","NA","477681","NA","NA","NA","476677","NA","476652","1950","479443","NA","NA","NA","477721","1786","1936","NA","NA","478563","478589","476652","477681","477701","morph21_Oliver/Morris","65","78559","83","yes","1920","37"
"350","","78.57142857142857","78.57142857142857","944.8333333333334","944.8333333333334","black","no","xpyriment","legacy","legacy","0","203","NA","uniform","NA","NA","NA","1","undefined","1","0","83","83","83","0","83","83","83","NA","0","83","NA","NA","0","83","NA","83","0","83","NA","NA","NA","83","0","0","NA","NA","83","83","83","83","83","84","z","Mon Apr 22 16:43:03 2024","Executes Python code","yes","m21-ba-lexicalDecision.osexp","C:\Users\ekealey\Desktop","no","mono","no","18","no","white","no","yes","1080","legacy","83","83","C:/Users/ekealey/Desktop/subject-244.csv","xpyriment","Lentiform Loewenfeld","3.3.11","0","z","space","NA","NA","NA","space","z","807","13417","NA","NA","NA","91885","807","2","legacy","1024","2","48000","-16","AB_m21","244","even","NW_S_COMP","HUMIDOES","1786","484496","481014","482991","93837","431810","NA","NA","NA","NA","481515","NA","NA","NA","480511","NA","480484","1950","484846","NA","NA","NA","481556","1786","1936","NA","NA","482364","482388","480484","481515","481535","morph21_Oliver/Morris","66","79366","84","yes","1920","25"
"250","","78.82352941176471","78.82352941176471","943.9411764705883","943.9411764705883","black","no","xpyriment","legacy","legacy","0","201","NA","uniform","NA","NA","NA","1","undefined","1","0","84","84","84","0","84","84","84","NA","0","84","NA","NA","0","84","NA","84","0","84","NA","NA","NA","84","0","0","NA","NA","84","84","84","84","84","85","/","Mon Apr 22 16:43:03 2024","Executes Python code","yes","m21-ba-lexicalDecision.osexp","C:\Users\ekealey\Desktop","no","mono","no","18","no","white","no","yes","1080","legacy","84","84","C:/Users/ekealey/Desktop/subject-244.csv","xpyriment","Lentiform Loewenfeld","3.3.11","0","/","space","NA","NA","NA","space","/","869","13417","NA","NA","NA","91885","869","2","legacy","1024","2","48000","-16","AB_m21","244","even","CW_S","PLANNER","1786","488448","486408","482991","93837","431810","NA","NA","NA","NA","486909","NA","NA","NA","485906","NA","485874","1950","488698","NA","NA","NA","486950","1786","1936","NA","NA","487820","487844","485874","486909","486930","morph21_Oliver/Morris","67","80235","85","yes","1920","22"
"250","","79.06976744186046","79.06976744186046","939.6279069767442","939.6279069767442","black","no","xpyriment","legacy","legacy","0","207","NA","uniform","NA","NA","NA","1","undefined","1","0","85","85","85","0","85","85","85","NA","0","85","NA","NA","0","85","NA","85","0","85","NA","NA","NA","85","0","0","NA","NA","85","85","85","85","85","86","/","Mon Apr 22 16:43:03 2024","Executes Python code","yes","m21-ba-lexicalDecision.osexp","C:\Users\ekealey\Desktop","no","mono","no","18","no","white","no","yes","1080","legacy","85","85","C:/Users/ekealey/Desktop/subject-244.csv","xpyriment","Lentiform Loewenfeld","3.3.11","0","/","space","NA","NA","NA","space","/","573","13417","NA","NA","NA","91885","573","2","legacy","1024","2","48000","-16","AB_m21","244","even","FILL_W","COOK","1786","491989","490246","482991","93837","431810","NA","NA","NA","NA","490747","NA","NA","NA","489744","NA","489716","1950","492239","NA","NA","NA","490789","1786","1936","NA","NA","491363","491386","489716","490747","490768","morph21_Oliver/Morris","68","80808","86","yes","1920","38"
"250","","79.3103448275862","79.3103448275862","935.8390804597701","935.8390804597701","black","no","xpyriment","legacy","legacy","0","207","NA","uniform","NA","NA","NA","1","undefined","1","0","86","86","86","0","86","86","86","NA","0","86","NA","NA","0","86","NA","86","0","86","NA","NA","NA","86","0","0","NA","NA","86","86","86","86","86","87","/","Mon Apr 22 16:43:03 2024","Executes Python code","yes","m21-ba-lexicalDecision.osexp","C:\Users\ekealey\Desktop","no","mono","no","18","no","white","no","yes","1080","legacy","86","86","C:/Users/ekealey/Desktop/subject-244.csv","xpyriment","Lentiform Loewenfeld","3.3.11","0","/","space","NA","NA","NA","space","/","610","13417","NA","NA","NA","91885","610","2","legacy","1024","2","48000","-16","AB_m21","244","even","FILL_W","TASTE","1786","497028","493746","495525","93837","431810","NA","NA","NA","NA","494247","NA","NA","NA","493245","NA","493219","1950","497278","NA","NA","NA","494288","1786","1936","NA","NA","494899","494922","493219","494247","494268","morph21_Oliver/Morris","69","81418","87","yes","1920","34"
"300","","79.54545454545455","79.54545454545455","934.2272727272727","934.2272727272727","black","no","xpyriment","legacy","legacy","0","202","NA","uniform","NA","NA","NA","1","undefined","1","0","87","87","87","0","87","87","87","NA","0","87","NA","NA","0","87","NA","87","0","87","NA","NA","NA","87","0","0","NA","NA","87","87","87","87","87","88","/","Mon Apr 22 16:43:03 2024","Executes Python code","yes","m21-ba-lexicalDecision.osexp","C:\Users\ekealey\Desktop","no","mono","no","18","no","white","no","yes","1080","legacy","87","87","C:/Users/ekealey/Desktop/subject-244.csv","xpyriment","Lentiform Loewenfeld","3.3.11","0","/","space","NA","NA","NA","space","/","794","13417","NA","NA","NA","91885","794","2","legacy","1024","2","48000","-16","AB_m21","244","even","CW_L","HEATER","1786","500817","498851","495525","93837","431810","NA","NA","NA","NA","499351","NA","NA","NA","498350","NA","498317","1950","501117","NA","NA","NA","499392","1786","1936","NA","NA","500187","500213","498317","499351","499372","morph21_Oliver/Morris","70","82212","88","yes","1920","16"
"250","","79.7752808988764","79.7752808988764","933.6067415730337","933.6067415730337","black","no","xpyriment","legacy","legacy","0","202","NA","uniform","NA","NA","NA","1","undefined","1","0","88","88","88","0","88","88","88","NA","0","88","NA","NA","0","88","NA","88","0","88","NA","NA","NA","88","0","0","NA","NA","88","88","88","88","88","89","/","Mon Apr 22 16:43:03 2024","Executes Python code","yes","m21-ba-lexicalDecision.osexp","C:\Users\ekealey\Desktop","no","mono","no","18","no","white","no","yes","1080","legacy","88","88","C:/Users/ekealey/Desktop/subject-244.csv","xpyriment","Lentiform Loewenfeld","3.3.11","0","/","space","NA","NA","NA","space","/","879","13417","NA","NA","NA","91885","879","2","legacy","1024","2","48000","-16","AB_m21","244","even","CW_L","DANCER","1786","504718","502669","495525","93837","431810","NA","NA","NA","NA","503170","NA","NA","NA","502168","NA","502142","1950","504968","NA","NA","NA","503211","1786","1936","NA","NA","504091","504115","502142","503170","503191","morph21_Oliver/Morris","71","83091","89","yes","1920","11"
"200","","78.88888888888889","78.88888888888889","936.5666666666667","936.5666666666667","black","no","xpyriment","legacy","legacy","0","202","NA","uniform","NA","NA","NA","0","undefined","0","0","89","89","89","0","89","89","89","NA","0","89","NA","NA","0","89","NA","89","0","89","NA","NA","NA","89","0","0","NA","NA","89","89","89","89","89","90","/","Mon Apr 22 16:43:03 2024","Executes Python code","yes","m21-ba-lexicalDecision.osexp","C:\Users\ekealey\Desktop","no","mono","no","18","no","white","no","yes","1080","legacy","89","89","C:/Users/ekealey/Desktop/subject-244.csv","xpyriment","Lentiform Loewenfeld","3.3.11","0","None","space","NA","NA","NA","space","None","1200","13417","NA","NA","NA","91885","1200","2","legacy","1024","2","48000","-16","AB_m21","244","even","CW_L","BONELESS","1786","510389","506511","508884","93837","431810","NA","NA","NA","NA","507013","NA","NA","NA","506010","NA","505980","1950","510589","NA","NA","NA","507054","1786","1936","NA","NA","508254","508279","505980","507013","507034","morph21_Oliver/Morris","71","84291","90","yes","1920","34"
"250","","79.12087912087912","79.12087912087912","939.010989010989","939.010989010989","black","no","xpyriment","legacy","legacy","0","202","NA","uniform","NA","NA","NA","1","undefined","1","0","90","90","90","0","90","90","90","NA","0","90","NA","NA","0","90","NA","90","0","90","NA","NA","NA","90","0","0","NA","NA","90","90","90","90","90","91","/","Mon Apr 22 16:43:03 2024","Executes Python code","yes","m21-ba-lexicalDecision.osexp","C:\Users\ekealey\Desktop","no","mono","no","18","no","white","no","yes","1080","legacy","90","90","C:/Users/ekealey/Desktop/subject-244.csv","xpyriment","Lentiform Loewenfeld","3.3.11","0","/","space","NA","NA","NA","space","/","1159","13417","NA","NA","NA","91885","1159","2","legacy","1024","2","48000","-16","AB_m21","244","even","CW_L","DEAFNESS","1786","514480","512151","508884","93837","431810","NA","NA","NA","NA","512652","NA","NA","NA","511649","NA","511612","1950","514730","NA","NA","NA","512692","1786","1936","NA","NA","513852","513877","511612","512652","512672","morph21_Oliver/Morris","72","85450","91","yes","1920","39"
