"ITI","_prepare","acc","accuracy","average_response_time","avg_rt","background","bidi","canvas_backend","clock_backend","color_backend","compensation","cond_trig","condtrigtime","coordinates","coroutines_cycles","coroutines_duration","coroutines_mean_cycle_duration","correct","correct_instructions_1","correct_new_keyboard_response_1","count_AB_m21","count_ITI","count_blank_screen","count_blink_screen","count_block1","count_break1","count_break2","count_break3_1","count_canvas","count_close_port","count_cond_trigger","count_correct_trigger","count_def_chain","count_end_screen","count_fixation_1","count_getting_started","count_inc_counter","count_instructions_1","count_logger","count_logscript","count_new_inline_script","count_new_inline_script_2","count_new_keyboard_response_1","count_open_port","count_reset_counter_prep","count_reset_counter_run","count_reset_counter_run_1","count_response_trigger_trial","count_responsescreen","count_sequence","count_target_present","count_word_trigger","counter","cresp","datetime","description","disable_garbage_collection","experiment_file","experiment_path","font_bold","font_family","font_italic","font_size","font_underline","foreground","form_clicks","fullscreen","height","keyboard_backend","live_row","live_row_block1","logfile","mouse_backend","opensesame_codename","opensesame_version","repeat_cycle","response","response_break1","response_break2","response_break3_1","response_end_screen","response_instructions_1","response_new_keyboard_response_1","response_time","response_time_break1","response_time_break2","response_time_break3_1","response_time_end_screen","response_time_instructions_1","response_time_new_keyboard_response_1","round_decimals","sampler_backend","sound_buf_size","sound_channels","sound_freq","sound_sample_size","start","subject_nr","subject_parity","targ_type","target","time_AB_m21","time_ITI","time_blank_screen","time_blink_screen","time_block1","time_break1","time_break2","time_break3_1","time_canvas","time_close_port","time_cond_trigger","time_correct_trigger","time_def_chain","time_end_screen","time_fixation_1","time_getting_started","time_inc_counter","time_instructions_1","time_logger","time_logscript","time_new_inline_script","time_new_inline_script_2","time_new_keyboard_response_1","time_open_port","time_reset_counter_prep","time_reset_counter_run","time_reset_counter_run_1","time_response_trigger_trial","time_responsescreen","time_sequence","time_target_present","time_word_trigger","title","total_correct","total_response_time","total_responses","uniform_coordinates","width","word_trig"
"300","","0","0","1200","1200","black","no","xpyriment","legacy","legacy","0","206","NA","uniform","NA","NA","NA","0","undefined","0","0","0","0","0","0","0","0","0","NA","0","0","NA","NA","0","0","NA","0","0","0","NA","NA","NA","0","0","0","NA","NA","0","0","0","0","0","1","z","Wed Nov  8 15:06:48 2023","Executes Python code","yes","m21-ba-lexicalDecision.osexp","C:\Users\ekealey\Desktop","no","mono","no","18","no","white","no","yes","1080","legacy","0","0","C:/Users/ekealey/Desktop/subject-228.csv","xpyriment","Lentiform Loewenfeld","3.3.11","0","None","NA","NA","NA","NA","space","None","1200","NA","NA","NA","NA","45295","1200","2","legacy","1024","2","48000","-16","AB_m21","228","even","NW_L_SIMP","BANDARY","1785","51557","49189","NA","47238","NA","NA","NA","NA","NA","49689","NA","NA","NA","48688","NA","48653","1942","51857","NA","NA","NA","49729","1785","1928","NA","NA","50929","50953","48652","49689","49709","morph21_Oliver/Morris","0","1200","1","yes","1920","3"
"350","","0","0","1200","1200","black","no","xpyriment","legacy","legacy","0","202","NA","uniform","NA","NA","NA","0","undefined","0","0","1","1","1","0","1","1","1","NA","0","1","NA","NA","0","1","NA","1","0","1","NA","NA","NA","1","0","0","NA","NA","1","1","1","1","1","2","/","Wed Nov  8 15:06:48 2023","Executes Python code","yes","m21-ba-lexicalDecision.osexp","C:\Users\ekealey\Desktop","no","mono","no","18","no","white","no","yes","1080","legacy","1","1","C:/Users/ekealey/Desktop/subject-228.csv","xpyriment","Lentiform Loewenfeld","3.3.11","0","None","NA","NA","NA","NA","space","None","1200","NA","NA","NA","NA","45295","1200","2","legacy","1024","2","48000","-16","AB_m21","228","even","CW_L","HUNTER","1785","55815","53447","NA","47238","NA","NA","NA","NA","NA","53947","NA","NA","NA","52947","NA","52914","1942","56166","NA","NA","NA","53988","1785","1928","NA","NA","55188","55212","52914","53947","53968","morph21_Oliver/Morris","0","2400","2","yes","1920","10"
"200","","33.333333333333336","33.333333333333336","1190.6666666666667","1190.6666666666667","black","no","xpyriment","legacy","legacy","0","202","NA","uniform","NA","NA","NA","1","undefined","1","0","2","2","2","0","2","2","2","NA","0","2","NA","NA","0","2","NA","2","0","2","NA","NA","NA","2","0","0","NA","NA","2","2","2","2","2","3","/","Wed Nov  8 15:06:48 2023","Executes Python code","yes","m21-ba-lexicalDecision.osexp","C:\Users\ekealey\Desktop","no","mono","no","18","no","white","no","yes","1080","legacy","2","2","C:/Users/ekealey/Desktop/subject-228.csv","xpyriment","Lentiform Loewenfeld","3.3.11","0","/","NA","NA","NA","NA","space","/","1172","NA","NA","NA","NA","45295","1172","2","legacy","1024","2","48000","-16","AB_m21","228","even","CW_L","SHAMEFUL","1785","61627","57780","60122","47238","NA","NA","NA","NA","NA","58281","NA","NA","NA","57278","NA","57249","1942","61827","NA","NA","NA","58322","1785","1928","NA","NA","59494","59518","57249","58281","58302","morph21_Oliver/Morris","1","3572","3","yes","1920","19"
"250","","50","50","1166.25","1166.25","black","no","xpyriment","legacy","legacy","0","205","NA","uniform","NA","NA","NA","1","undefined","1","0","3","3","3","0","3","3","3","NA","0","3","NA","NA","0","3","NA","3","0","3","NA","NA","NA","3","0","0","NA","NA","3","3","3","3","3","4","z","Wed Nov  8 15:06:48 2023","Executes Python code","yes","m21-ba-lexicalDecision.osexp","C:\Users\ekealey\Desktop","no","mono","no","18","no","white","no","yes","1080","legacy","3","3","C:/Users/ekealey/Desktop/subject-228.csv","xpyriment","Lentiform Loewenfeld","3.3.11","0","z","NA","NA","NA","NA","space","z","1093","NA","NA","NA","NA","45295","1093","2","legacy","1024","2","48000","-16","AB_m21","228","even","NW_S_SIMP","DIGORY","1785","65706","63443","60122","47238","NA","NA","NA","NA","NA","63944","NA","NA","NA","62943","NA","62916","1942","65956","NA","NA","NA","63984","1785","1928","NA","NA","65078","65103","62916","63943","63964","morph21_Oliver/Morris","2","4665","4","yes","1920","11"
"250","","60","60","1089.8","1089.8","black","no","xpyriment","legacy","legacy","0","207","NA","uniform","NA","NA","NA","1","undefined","1","0","4","4","4","0","4","4","4","NA","0","4","NA","NA","0","4","NA","4","0","4","NA","NA","NA","4","0","0","NA","NA","4","4","4","4","4","5","/","Wed Nov  8 15:06:48 2023","Executes Python code","yes","m21-ba-lexicalDecision.osexp","C:\Users\ekealey\Desktop","no","mono","no","18","no","white","no","yes","1080","legacy","4","4","C:/Users/ekealey/Desktop/subject-228.csv","xpyriment","Lentiform Loewenfeld","3.3.11","0","/","NA","NA","NA","NA","space","/","784","NA","NA","NA","NA","45295","784","2","legacy","1024","2","48000","-16","AB_m21","228","even","FILL_W","SHIP","1785","69514","67559","60122","47238","NA","NA","NA","NA","NA","68060","NA","NA","NA","67059","NA","67028","1942","69764","NA","NA","NA","68101","1785","1928","NA","NA","68886","68910","67028","68060","68081","morph21_Oliver/Morris","3","5449","5","yes","1920","37"
"350","","50","50","1108.1666666666667","1108.1666666666667","black","no","xpyriment","legacy","legacy","0","201","NA","uniform","NA","NA","NA","0","undefined","0","0","5","5","5","0","5","5","5","NA","0","5","NA","NA","0","5","NA","5","0","5","NA","NA","NA","5","0","0","NA","NA","5","5","5","5","5","6","/","Wed Nov  8 15:06:48 2023","Executes Python code","yes","m21-ba-lexicalDecision.osexp","C:\Users\ekealey\Desktop","no","mono","no","18","no","white","no","yes","1080","legacy","5","5","C:/Users/ekealey/Desktop/subject-228.csv","xpyriment","Lentiform Loewenfeld","3.3.11","0","None","NA","NA","NA","NA","space","None","1200","NA","NA","NA","NA","45295","1200","2","legacy","1024","2","48000","-16","AB_m21","228","even","CW_S","BEARDED","1785","75245","71371","73741","47238","NA","NA","NA","NA","NA","71872","NA","NA","NA","70871","NA","70844","1942","75595","NA","NA","NA","71912","1785","1928","NA","NA","73112","73136","70844","71872","71892","morph21_Oliver/Morris","3","6649","6","yes","1920","8"
"400","","57.142857142857146","57.142857142857146","1072","1072","black","no","xpyriment","legacy","legacy","0","202","NA","uniform","NA","NA","NA","1","undefined","1","0","6","6","6","0","6","6","6","NA","0","6","NA","NA","0","6","NA","6","0","6","NA","NA","NA","6","0","0","NA","NA","6","6","6","6","6","7","/","Wed Nov  8 15:06:48 2023","Executes Python code","yes","m21-ba-lexicalDecision.osexp","C:\Users\ekealey\Desktop","no","mono","no","18","no","white","no","yes","1080","legacy","6","6","C:/Users/ekealey/Desktop/subject-228.csv","xpyriment","Lentiform Loewenfeld","3.3.11","0","/","NA","NA","NA","NA","space","/","855","NA","NA","NA","NA","45295","855","2","legacy","1024","2","48000","-16","AB_m21","228","even","CW_L","QUIETLY","1785","79210","77185","73741","47238","NA","NA","NA","NA","NA","77685","NA","NA","NA","76683","NA","76656","1942","79610","NA","NA","NA","77726","1785","1928","NA","NA","78582","78606","76656","77685","77706","morph21_Oliver/Morris","4","7504","7","yes","1920","36"
"300","","50","50","1088","1088","black","no","xpyriment","legacy","legacy","0","206","NA","uniform","NA","NA","NA","0","undefined","0","0","7","7","7","0","7","7","7","NA","0","7","NA","NA","0","7","NA","7","0","7","NA","NA","NA","7","0","0","NA","NA","7","7","7","7","7","8","z","Wed Nov  8 15:06:48 2023","Executes Python code","yes","m21-ba-lexicalDecision.osexp","C:\Users\ekealey\Desktop","no","mono","no","18","no","white","no","yes","1080","legacy","7","7","C:/Users/ekealey/Desktop/subject-228.csv","xpyriment","Lentiform Loewenfeld","3.3.11","0","None","NA","NA","NA","NA","space","None","1200","NA","NA","NA","NA","45295","1200","2","legacy","1024","2","48000","-16","AB_m21","228","even","NW_L_SIMP","ELBOWISM","1785","83553","81186","73741","47238","NA","NA","NA","NA","NA","81686","NA","NA","NA","80686","NA","80658","1942","83853","NA","NA","NA","81727","1785","1928","NA","NA","82927","82950","80658","81686","81707","morph21_Oliver/Morris","4","8704","8","yes","1920","10"
"250","","55.55555555555556","55.55555555555556","1038.7777777777778","1038.7777777777778","black","no","xpyriment","legacy","legacy","0","207","NA","uniform","NA","NA","NA","1","undefined","1","0","8","8","8","0","8","8","8","NA","0","8","NA","NA","0","8","NA","8","0","8","NA","NA","NA","8","0","0","NA","NA","8","8","8","8","8","9","/","Wed Nov  8 15:06:48 2023","Executes Python code","yes","m21-ba-lexicalDecision.osexp","C:\Users\ekealey\Desktop","no","mono","no","18","no","white","no","yes","1080","legacy","8","8","C:/Users/ekealey/Desktop/subject-228.csv","xpyriment","Lentiform Loewenfeld","3.3.11","0","/","NA","NA","NA","NA","space","/","645","NA","NA","NA","NA","45295","645","2","legacy","1024","2","48000","-16","AB_m21","228","even","FILL_W","SOFT","1785","88745","85427","87242","47238","NA","NA","NA","NA","NA","85928","NA","NA","NA","84927","NA","84902","1942","88995","NA","NA","NA","85968","1785","1928","NA","NA","86613","86639","84902","85928","85948","morph21_Oliver/Morris","5","9349","9","yes","1920","43"
"250","","60","60","1014","1014","black","no","xpyriment","legacy","legacy","0","201","NA","uniform","NA","NA","NA","1","undefined","1","0","9","9","9","0","9","9","9","NA","0","9","NA","NA","0","9","NA","9","0","9","NA","NA","NA","9","0","0","NA","NA","9","9","9","9","9","10","/","Wed Nov  8 15:06:48 2023","Executes Python code","yes","m21-ba-lexicalDecision.osexp","C:\Users\ekealey\Desktop","no","mono","no","18","no","white","no","yes","1080","legacy","9","9","C:/Users/ekealey/Desktop/subject-228.csv","xpyriment","Lentiform Loewenfeld","3.3.11","0","/","NA","NA","NA","NA","space","/","791","NA","NA","NA","NA","45295","791","2","legacy","1024","2","48000","-16","AB_m21","228","even","CW_S","TUTORING","1785","92530","90569","87242","47238","NA","NA","NA","NA","NA","91069","NA","NA","NA","90068","NA","90032","1942","92780","NA","NA","NA","91110","1785","1928","NA","NA","91901","91925","90032","91069","91090","morph21_Oliver/Morris","6","10140","10","yes","1920","27"
"300","","54.54545454545455","54.54545454545455","1030.909090909091","1030.909090909091","black","no","xpyriment","legacy","legacy","0","206","NA","uniform","NA","NA","NA","0","undefined","0","0","10","10","10","0","10","10","10","NA","0","10","NA","NA","0","10","NA","10","0","10","NA","NA","NA","10","0","0","NA","NA","10","10","10","10","10","11","z","Wed Nov  8 15:06:48 2023","Executes Python code","yes","m21-ba-lexicalDecision.osexp","C:\Users\ekealey\Desktop","no","mono","no","18","no","white","no","yes","1080","legacy","10","10","C:/Users/ekealey/Desktop/subject-228.csv","xpyriment","Lentiform Loewenfeld","3.3.11","0","None","NA","NA","NA","NA","space","None","1200","NA","NA","NA","NA","45295","1200","2","legacy","1024","2","48000","-16","AB_m21","228","even","NW_L_SIMP","LONGNESS","1785","96740","94368","87242","47238","NA","NA","NA","NA","NA","94870","NA","NA","NA","93866","NA","93841","1942","97040","NA","NA","NA","94910","1785","1928","NA","NA","96110","96135","93841","94869","94890","morph21_Oliver/Morris","6","11340","11","yes","1920","17"
"300","","58.333333333333336","58.333333333333336","1024.25","1024.25","black","no","xpyriment","legacy","legacy","0","201","NA","uniform","NA","NA","NA","1","undefined","1","0","11","11","11","0","11","11","11","NA","0","11","NA","NA","0","11","NA","11","0","11","NA","NA","NA","11","0","0","NA","NA","11","11","11","11","11","12","/","Wed Nov  8 15:06:48 2023","Executes Python code","yes","m21-ba-lexicalDecision.osexp","C:\Users\ekealey\Desktop","no","mono","no","18","no","white","no","yes","1080","legacy","11","11","C:/Users/ekealey/Desktop/subject-228.csv","xpyriment","Lentiform Loewenfeld","3.3.11","0","/","NA","NA","NA","NA","space","/","951","NA","NA","NA","NA","45295","951","2","legacy","1024","2","48000","-16","AB_m21","228","even","CW_S","ATTACKER","1785","102257","98631","100752","47238","NA","NA","NA","NA","NA","99132","NA","NA","NA","98131","NA","98103","1942","102557","NA","NA","NA","99173","1785","1928","NA","NA","100125","100149","98103","99132","99153","morph21_Oliver/Morris","7","12291","12","yes","1920","20"
"350","","61.53846153846154","61.53846153846154","1011.8461538461538","1011.8461538461538","black","no","xpyriment","legacy","legacy","0","203","NA","uniform","NA","NA","NA","1","undefined","1","0","12","12","12","0","12","12","12","NA","0","12","NA","NA","0","12","NA","12","0","12","NA","NA","NA","12","0","0","NA","NA","12","12","12","12","12","13","z","Wed Nov  8 15:06:48 2023","Executes Python code","yes","m21-ba-lexicalDecision.osexp","C:\Users\ekealey\Desktop","no","mono","no","18","no","white","no","yes","1080","legacy","12","12","C:/Users/ekealey/Desktop/subject-228.csv","xpyriment","Lentiform Loewenfeld","3.3.11","0","z","NA","NA","NA","NA","space","z","863","NA","NA","NA","NA","45295","863","2","legacy","1024","2","48000","-16","AB_m21","228","even","NW_S_COMP","FIENDILM","1785","106184","104153","100752","47238","NA","NA","NA","NA","NA","104653","NA","NA","NA","103653","NA","103624","1942","106534","NA","NA","NA","104694","1785","1928","NA","NA","105558","105581","103624","104653","104674","morph21_Oliver/Morris","8","13154","13","yes","1920","24"
"400","","57.142857142857146","57.142857142857146","1010.3571428571429","1010.3571428571429","black","no","xpyriment","legacy","legacy","0","205","NA","uniform","NA","NA","NA","0","undefined","0","0","13","13","13","0","13","13","13","NA","0","13","NA","NA","0","13","NA","13","0","13","NA","NA","NA","13","0","0","NA","NA","13","13","13","13","13","14","z","Wed Nov  8 15:06:48 2023","Executes Python code","yes","m21-ba-lexicalDecision.osexp","C:\Users\ekealey\Desktop","no","mono","no","18","no","white","no","yes","1080","legacy","13","13","C:/Users/ekealey/Desktop/subject-228.csv","xpyriment","Lentiform Loewenfeld","3.3.11","0","/","NA","NA","NA","NA","space","/","991","NA","NA","NA","NA","45295","991","2","legacy","1024","2","48000","-16","AB_m21","228","even","NW_S_SIMP","SCHEMENESS","1785","110299","108136","100752","47238","NA","NA","NA","NA","NA","108637","NA","NA","NA","107635","NA","107609","1942","110699","NA","NA","NA","108677","1785","1928","NA","NA","109669","109694","107609","108637","108657","morph21_Oliver/Morris","8","14145","14","yes","1920","15"
"400","","60","60","996.2","996.2","black","no","xpyriment","legacy","legacy","0","207","NA","uniform","NA","NA","NA","1","undefined","1","0","14","14","14","0","14","14","14","NA","0","14","NA","NA","0","14","NA","14","0","14","NA","NA","NA","14","0","0","NA","NA","14","14","14","14","14","15","/","Wed Nov  8 15:06:48 2023","Executes Python code","yes","m21-ba-lexicalDecision.osexp","C:\Users\ekealey\Desktop","no","mono","no","18","no","white","no","yes","1080","legacy","14","14","C:/Users/ekealey/Desktop/subject-228.csv","xpyriment","Lentiform Loewenfeld","3.3.11","0","/","NA","NA","NA","NA","space","/","798","NA","NA","NA","NA","45295","798","2","legacy","1024","2","48000","-16","AB_m21","228","even","FILL_W","DRUNK","1785","115740","112266","114235","47238","NA","NA","NA","NA","NA","112767","NA","NA","NA","111764","NA","111738","1942","116141","NA","NA","NA","112807","1785","1928","NA","NA","113605","113630","111738","112767","112787","morph21_Oliver/Morris","9","14943","15","yes","1920","19"
"250","","62.5","62.5","971.75","971.75","black","no","xpyriment","legacy","legacy","0","207","NA","uniform","NA","NA","NA","1","undefined","1","0","15","15","15","0","15","15","15","NA","0","15","NA","NA","0","15","NA","15","0","15","NA","NA","NA","15","0","0","NA","NA","15","15","15","15","15","16","/","Wed Nov  8 15:06:48 2023","Executes Python code","yes","m21-ba-lexicalDecision.osexp","C:\Users\ekealey\Desktop","no","mono","no","18","no","white","no","yes","1080","legacy","15","15","C:/Users/ekealey/Desktop/subject-228.csv","xpyriment","Lentiform Loewenfeld","3.3.11","0","/","NA","NA","NA","NA","space","/","605","NA","NA","NA","NA","45295","605","2","legacy","1024","2","48000","-16","AB_m21","228","even","FILL_W","SLIM","1785","119552","117778","114235","47238","NA","NA","NA","NA","NA","118278","NA","NA","NA","117277","NA","117249","1942","119802","NA","NA","NA","118320","1785","1928","NA","NA","118925","118949","117249","118278","118299","morph21_Oliver/Morris","10","15548","16","yes","1920","6"
"300","","64.70588235294117","64.70588235294117","973","973","black","no","xpyriment","legacy","legacy","0","208","NA","uniform","NA","NA","NA","1","undefined","1","0","16","16","16","0","16","16","16","NA","0","16","NA","NA","0","16","NA","16","0","16","NA","NA","NA","16","0","0","NA","NA","16","16","16","16","16","17","z","Wed Nov  8 15:06:48 2023","Executes Python code","yes","m21-ba-lexicalDecision.osexp","C:\Users\ekealey\Desktop","no","mono","no","18","no","white","no","yes","1080","legacy","16","16","C:/Users/ekealey/Desktop/subject-228.csv","xpyriment","Lentiform Loewenfeld","3.3.11","0","z","NA","NA","NA","NA","space","z","993","NA","NA","NA","NA","45295","993","2","legacy","1024","2","48000","-16","AB_m21","228","even","FILL_NW","VOOFS","1785","123552","121390","114235","47238","NA","NA","NA","NA","NA","121891","NA","NA","NA","120890","NA","120857","1942","123852","NA","NA","NA","121932","1785","1928","NA","NA","122925","122950","120857","121891","121912","morph21_Oliver/Morris","11","16541","17","yes","1920","48"
"350","","61.111111111111114","61.111111111111114","985.6111111111111","985.6111111111111","black","no","xpyriment","legacy","legacy","0","206","NA","uniform","NA","NA","NA","0","undefined","0","0","17","17","17","0","17","17","17","NA","0","17","NA","NA","0","17","NA","17","0","17","NA","NA","NA","17","0","0","NA","NA","17","17","17","17","17","18","z","Wed Nov  8 15:06:48 2023","Executes Python code","yes","m21-ba-lexicalDecision.osexp","C:\Users\ekealey\Desktop","no","mono","no","18","no","white","no","yes","1080","legacy","17","17","C:/Users/ekealey/Desktop/subject-228.csv","xpyriment","Lentiform Loewenfeld","3.3.11","0","None","NA","NA","NA","NA","space","None","1200","NA","NA","NA","NA","45295","1200","2","legacy","1024","2","48000","-16","AB_m21","228","even","NW_L_SIMP","NUTLY","1785","129311","125435","127806","47238","NA","NA","NA","NA","NA","125936","NA","NA","NA","124935","NA","124909","1942","129661","NA","NA","NA","125976","1785","1928","NA","NA","127176","127201","124909","125935","125956","morph21_Oliver/Morris","11","17741","18","yes","1920","14"
"200","","63.1578947368421","63.1578947368421","964.7368421052631","964.7368421052631","black","no","xpyriment","legacy","legacy","0","207","NA","uniform","NA","NA","NA","1","undefined","1","0","18","18","18","0","18","18","18","NA","0","18","NA","NA","0","18","NA","18","0","18","NA","NA","NA","18","0","0","NA","NA","18","18","18","18","18","19","/","Wed Nov  8 15:06:48 2023","Executes Python code","yes","m21-ba-lexicalDecision.osexp","C:\Users\ekealey\Desktop","no","mono","no","18","no","white","no","yes","1080","legacy","18","18","C:/Users/ekealey/Desktop/subject-228.csv","xpyriment","Lentiform Loewenfeld","3.3.11","0","/","NA","NA","NA","NA","space","/","589","NA","NA","NA","NA","45295","589","2","legacy","1024","2","48000","-16","AB_m21","228","even","FILL_W","FLOAT","1785","133032","131274","127806","47238","NA","NA","NA","NA","NA","131775","NA","NA","NA","130774","NA","130746","1942","133232","NA","NA","NA","131816","1785","1928","NA","NA","132405","132429","130746","131775","131796","morph21_Oliver/Morris","12","18330","19","yes","1920","30"
"200","","65","65","948.2","948.2","black","no","xpyriment","legacy","legacy","0","207","NA","uniform","NA","NA","NA","1","undefined","1","0","19","19","19","0","19","19","19","NA","0","19","NA","NA","0","19","NA","19","0","19","NA","NA","NA","19","0","0","NA","NA","19","19","19","19","19","20","/","Wed Nov  8 15:06:48 2023","Executes Python code","yes","m21-ba-lexicalDecision.osexp","C:\Users\ekealey\Desktop","no","mono","no","18","no","white","no","yes","1080","legacy","19","19","C:/Users/ekealey/Desktop/subject-228.csv","xpyriment","Lentiform Loewenfeld","3.3.11","0","/","NA","NA","NA","NA","space","/","634","NA","NA","NA","NA","45295","634","2","legacy","1024","2","48000","-16","AB_m21","228","even","FILL_W","SAVE","1785","136611","134806","127806","47238","NA","NA","NA","NA","NA","135306","NA","NA","NA","134305","NA","134280","1942","136811","NA","NA","NA","135347","1785","1928","NA","NA","135981","136006","134280","135306","135327","morph21_Oliver/Morris","13","18964","20","yes","1920","46"
"250","","66.66666666666667","66.66666666666667","947.3333333333334","947.3333333333334","black","no","xpyriment","legacy","legacy","0","202","NA","uniform","NA","NA","NA","1","undefined","1","0","20","20","20","0","20","20","20","NA","0","20","NA","NA","0","20","NA","20","0","20","NA","NA","NA","20","0","0","NA","NA","20","20","20","20","20","21","/","Wed Nov  8 15:06:48 2023","Executes Python code","yes","m21-ba-lexicalDecision.osexp","C:\Users\ekealey\Desktop","no","mono","no","18","no","white","no","yes","1080","legacy","20","20","C:/Users/ekealey/Desktop/subject-228.csv","xpyriment","Lentiform Loewenfeld","3.3.11","0","/","NA","NA","NA","NA","space","/","930","NA","NA","NA","NA","45295","930","2","legacy","1024","2","48000","-16","AB_m21","228","even","CW_L","DEAFNESS","1785","142042","138438","140538","47238","NA","NA","NA","NA","NA","138939","NA","NA","NA","137936","NA","137908","1942","142292","NA","NA","NA","138979","1785","1928","NA","NA","139909","139934","137908","138939","138959","morph21_Oliver/Morris","14","19894","21","yes","1920","39"
"300","","68.18181818181819","68.18181818181819","939.0909090909091","939.0909090909091","black","no","xpyriment","legacy","legacy","0","201","NA","uniform","NA","NA","NA","1","undefined","1","0","21","21","21","0","21","21","21","NA","0","21","NA","NA","0","21","NA","21","0","21","NA","NA","NA","21","0","0","NA","NA","21","21","21","21","21","22","/","Wed Nov  8 15:06:48 2023","Executes Python code","yes","m21-ba-lexicalDecision.osexp","C:\Users\ekealey\Desktop","no","mono","no","18","no","white","no","yes","1080","legacy","21","21","C:/Users/ekealey/Desktop/subject-228.csv","xpyriment","Lentiform Loewenfeld","3.3.11","0","/","NA","NA","NA","NA","space","/","766","NA","NA","NA","NA","45295","766","2","legacy","1024","2","48000","-16","AB_m21","228","even","CW_S","DETECTABLE","1785","145809","143875","140538","47238","NA","NA","NA","NA","NA","144375","NA","NA","NA","143374","NA","143345","1942","146109","NA","NA","NA","144415","1785","1928","NA","NA","145181","145206","143345","144375","144395","morph21_Oliver/Morris","15","20660","22","yes","1920","1"
"400","","69.56521739130434","69.56521739130434","936.695652173913","936.695652173913","black","no","xpyriment","legacy","legacy","0","208","NA","uniform","NA","NA","NA","1","undefined","1","0","22","22","22","0","22","22","22","NA","0","22","NA","NA","0","22","NA","22","0","22","NA","NA","NA","22","0","0","NA","NA","22","22","22","22","22","23","z","Wed Nov  8 15:06:48 2023","Executes Python code","yes","m21-ba-lexicalDecision.osexp","C:\Users\ekealey\Desktop","no","mono","no","18","no","white","no","yes","1080","legacy","22","22","C:/Users/ekealey/Desktop/subject-228.csv","xpyriment","Lentiform Loewenfeld","3.3.11","0","z","NA","NA","NA","NA","space","z","884","NA","NA","NA","NA","45295","884","2","legacy","1024","2","48000","-16","AB_m21","228","even","FILL_NW","HEND","1785","149729","147676","140538","47238","NA","NA","NA","NA","NA","148176","NA","NA","NA","147176","NA","147148","1942","150130","NA","NA","NA","148217","1785","1928","NA","NA","149101","149126","147148","148176","148197","morph21_Oliver/Morris","16","21544","23","yes","1920","28"
"350","","70.83333333333333","70.83333333333333","927.6666666666666","927.6666666666666","black","no","xpyriment","legacy","legacy","0","208","NA","uniform","NA","NA","NA","1","undefined","1","0","23","23","23","0","23","23","23","NA","0","23","NA","NA","0","23","NA","23","0","23","NA","NA","NA","23","0","0","NA","NA","23","23","23","23","23","24","z","Wed Nov  8 15:06:48 2023","Executes Python code","yes","m21-ba-lexicalDecision.osexp","C:\Users\ekealey\Desktop","no","mono","no","18","no","white","no","yes","1080","legacy","23","23","C:/Users/ekealey/Desktop/subject-228.csv","xpyriment","Lentiform Loewenfeld","3.3.11","0","z","NA","NA","NA","NA","space","z","720","NA","NA","NA","NA","45295","720","2","legacy","1024","2","48000","-16","AB_m21","228","even","FILL_NW","BLANTH","1785","155089","151695","153586","47238","NA","NA","NA","NA","NA","152196","NA","NA","NA","151195","NA","151165","1942","155439","NA","NA","NA","152237","1785","1928","NA","NA","152958","152983","151165","152196","152217","morph21_Oliver/Morris","17","22264","24","yes","1920","3"
"400","","72","72","915.64","915.64","black","no","xpyriment","legacy","legacy","0","207","NA","uniform","NA","NA","NA","1","undefined","1","0","24","24","24","0","24","24","24","NA","0","24","NA","NA","0","24","NA","24","0","24","NA","NA","NA","24","0","0","NA","NA","24","24","24","24","24","25","/","Wed Nov  8 15:06:48 2023","Executes Python code","yes","m21-ba-lexicalDecision.osexp","C:\Users\ekealey\Desktop","no","mono","no","18","no","white","no","yes","1080","legacy","24","24","C:/Users/ekealey/Desktop/subject-228.csv","xpyriment","Lentiform Loewenfeld","3.3.11","0","/","NA","NA","NA","NA","space","/","627","NA","NA","NA","NA","45295","627","2","legacy","1024","2","48000","-16","AB_m21","228","even","FILL_W","EAT","1785","158810","157013","153586","47238","NA","NA","NA","NA","NA","157513","NA","NA","NA","156512","NA","156484","1942","159210","NA","NA","NA","157554","1785","1928","NA","NA","158181","158206","156483","157513","157534","morph21_Oliver/Morris","18","22891","25","yes","1920","25"
"400","","69.23076923076923","69.23076923076923","926.5769230769231","926.5769230769231","black","no","xpyriment","legacy","legacy","0","204","NA","uniform","NA","NA","NA","0","undefined","0","0","25","25","25","0","25","25","25","NA","0","25","NA","NA","0","25","NA","25","0","25","NA","NA","NA","25","0","0","NA","NA","25","25","25","25","25","26","z","Wed Nov  8 15:06:48 2023","Executes Python code","yes","m21-ba-lexicalDecision.osexp","C:\Users\ekealey\Desktop","no","mono","no","18","no","white","no","yes","1080","legacy","25","25","C:/Users/ekealey/Desktop/subject-228.csv","xpyriment","Lentiform Loewenfeld","3.3.11","0","None","NA","NA","NA","NA","space","None","1200","NA","NA","NA","NA","45295","1200","2","legacy","1024","2","48000","-16","AB_m21","228","even","NW_L_COMP","ANGELITH","1785","163151","160783","153586","47238","NA","NA","NA","NA","NA","161283","NA","NA","NA","160282","NA","160253","1942","163551","NA","NA","NA","161324","1785","1928","NA","NA","162524","162548","160253","161283","161304","morph21_Oliver/Morris","18","24091","26","yes","1920","7"
"300","","66.66666666666667","66.66666666666667","926.3333333333334","926.3333333333334","black","no","xpyriment","legacy","legacy","0","206","NA","uniform","NA","NA","NA","0","undefined","0","0","26","26","26","0","26","26","26","NA","0","26","NA","NA","0","26","NA","26","0","26","NA","NA","NA","26","0","0","NA","NA","26","26","26","26","26","27","z","Wed Nov  8 15:06:48 2023","Executes Python code","yes","m21-ba-lexicalDecision.osexp","C:\Users\ekealey\Desktop","no","mono","no","18","no","white","no","yes","1080","legacy","26","26","C:/Users/ekealey/Desktop/subject-228.csv","xpyriment","Lentiform Loewenfeld","3.3.11","0","/","NA","NA","NA","NA","space","/","920","NA","NA","NA","NA","45295","920","2","legacy","1024","2","48000","-16","AB_m21","228","even","NW_L_SIMP","EARIST","1785","168722","165125","167217","47238","NA","NA","NA","NA","NA","165628","NA","NA","NA","164624","NA","164596","1942","169022","NA","NA","NA","165669","1785","1928","NA","NA","166590","166614","164596","165628","165649","morph21_Oliver/Morris","18","25011","27","yes","1920","12"
"200","","64.28571428571429","64.28571428571429","926.8571428571429","926.8571428571429","black","no","xpyriment","legacy","legacy","0","206","NA","uniform","NA","NA","NA","0","undefined","0","0","27","27","27","0","27","27","27","NA","0","27","NA","NA","0","27","NA","27","0","27","NA","NA","NA","27","0","0","NA","NA","27","27","27","27","27","28","z","Wed Nov  8 15:06:48 2023","Executes Python code","yes","m21-ba-lexicalDecision.osexp","C:\Users\ekealey\Desktop","no","mono","no","18","no","white","no","yes","1080","legacy","27","27","C:/Users/ekealey/Desktop/subject-228.csv","xpyriment","Lentiform Loewenfeld","3.3.11","0","/","NA","NA","NA","NA","space","/","941","NA","NA","NA","NA","45295","941","2","legacy","1024","2","48000","-16","AB_m21","228","even","NW_L_SIMP","TOWERLY","1785","172738","170627","167217","47238","NA","NA","NA","NA","NA","171127","NA","NA","NA","170126","NA","170096","1942","172939","NA","NA","NA","171168","1785","1928","NA","NA","172109","172134","170096","171127","171148","morph21_Oliver/Morris","18","25952","28","yes","1920","15"
"300","","65.51724137931035","65.51724137931035","917.9655172413793","917.9655172413793","black","no","xpyriment","legacy","legacy","0","208","NA","uniform","NA","NA","NA","1","undefined","1","0","28","28","28","0","28","28","28","NA","0","28","NA","NA","0","28","NA","28","0","28","NA","NA","NA","28","0","0","NA","NA","28","28","28","28","28","29","z","Wed Nov  8 15:06:48 2023","Executes Python code","yes","m21-ba-lexicalDecision.osexp","C:\Users\ekealey\Desktop","no","mono","no","18","no","white","no","yes","1080","legacy","28","28","C:/Users/ekealey/Desktop/subject-228.csv","xpyriment","Lentiform Loewenfeld","3.3.11","0","z","NA","NA","NA","NA","space","z","669","NA","NA","NA","NA","45295","669","2","legacy","1024","2","48000","-16","AB_m21","228","even","FILL_NW","BAFED","1785","176353","174514","167217","47238","NA","NA","NA","NA","NA","175015","NA","NA","NA","174014","NA","173984","1942","176653","NA","NA","NA","175056","1785","1928","NA","NA","175725","175749","173984","175015","175036","morph21_Oliver/Morris","19","26621","29","yes","1920","1"
"350","","66.66666666666667","66.66666666666667","906.5666666666667","906.5666666666667","black","no","xpyriment","legacy","legacy","0","201","NA","uniform","NA","NA","NA","1","undefined","1","0","29","29","29","0","29","29","29","NA","0","29","NA","NA","0","29","NA","29","0","29","NA","NA","NA","29","0","0","NA","NA","29","29","29","29","29","30","/","Wed Nov  8 15:06:48 2023","Executes Python code","yes","m21-ba-lexicalDecision.osexp","C:\Users\ekealey\Desktop","no","mono","no","18","no","white","no","yes","1080","legacy","29","29","C:/Users/ekealey/Desktop/subject-228.csv","xpyriment","Lentiform Loewenfeld","3.3.11","0","/","NA","NA","NA","NA","space","/","576","NA","NA","NA","NA","45295","576","2","legacy","1024","2","48000","-16","AB_m21","228","even","CW_S","DULLNESS","1785","181514","178263","180011","47238","NA","NA","NA","NA","NA","178764","NA","NA","NA","177762","NA","177737","1942","181864","NA","NA","NA","178805","1785","1928","NA","NA","179382","179406","177737","178764","178785","morph21_Oliver/Morris","20","27197","30","yes","1920","43"
"200","","64.51612903225806","64.51612903225806","913.2258064516129","913.2258064516129","black","no","xpyriment","legacy","legacy","0","205","NA","uniform","NA","NA","NA","0","undefined","0","0","30","30","30","0","30","30","30","NA","0","30","NA","NA","0","30","NA","30","0","30","NA","NA","NA","30","0","0","NA","NA","30","30","30","30","30","31","z","Wed Nov  8 15:06:48 2023","Executes Python code","yes","m21-ba-lexicalDecision.osexp","C:\Users\ekealey\Desktop","no","mono","no","18","no","white","no","yes","1080","legacy","30","30","C:/Users/ekealey/Desktop/subject-228.csv","xpyriment","Lentiform Loewenfeld","3.3.11","0","/","NA","NA","NA","NA","space","/","1113","NA","NA","NA","NA","45295","1113","2","legacy","1024","2","48000","-16","AB_m21","228","even","NW_S_SIMP","NULLISH","1785","185720","183436","180011","47238","NA","NA","NA","NA","NA","183939","NA","NA","NA","182935","NA","182906","1942","185920","NA","NA","NA","183980","1785","1928","NA","NA","185094","185117","182906","183938","183959","morph21_Oliver/Morris","20","28310","31","yes","1920","23"
"300","","62.5","62.5","922.1875","922.1875","black","no","xpyriment","legacy","legacy","0","202","NA","uniform","NA","NA","NA","0","undefined","0","0","31","31","31","0","31","31","31","NA","0","31","NA","NA","0","31","NA","31","0","31","NA","NA","NA","31","0","0","NA","NA","31","31","31","31","31","32","/","Wed Nov  8 15:06:48 2023","Executes Python code","yes","m21-ba-lexicalDecision.osexp","C:\Users\ekealey\Desktop","no","mono","no","18","no","white","no","yes","1080","legacy","31","31","C:/Users/ekealey/Desktop/subject-228.csv","xpyriment","Lentiform Loewenfeld","3.3.11","0","None","NA","NA","NA","NA","space","None","1200","NA","NA","NA","NA","45295","1200","2","legacy","1024","2","48000","-16","AB_m21","228","even","CW_L","PROFESSOR","1785","189859","187489","180011","47238","NA","NA","NA","NA","NA","187989","NA","NA","NA","186989","NA","186959","1942","190159","NA","NA","NA","188031","1785","1928","NA","NA","189231","189255","186959","187989","188011","morph21_Oliver/Morris","20","29510","32","yes","1920","47"
"200","","60.60606060606061","60.60606060606061","930.6060606060606","930.6060606060606","black","no","xpyriment","legacy","legacy","0","205","NA","uniform","NA","NA","NA","0","undefined","0","0","32","32","32","0","32","32","32","NA","0","32","NA","NA","0","32","NA","32","0","32","NA","NA","NA","32","0","0","NA","NA","32","32","32","32","32","33","z","Wed Nov  8 15:06:48 2023","Executes Python code","yes","m21-ba-lexicalDecision.osexp","C:\Users\ekealey\Desktop","no","mono","no","18","no","white","no","yes","1080","legacy","32","32","C:/Users/ekealey/Desktop/subject-228.csv","xpyriment","Lentiform Loewenfeld","3.3.11","0","None","NA","NA","NA","NA","space","None","1200","NA","NA","NA","NA","45295","1200","2","legacy","1024","2","48000","-16","AB_m21","228","even","NW_S_SIMP","OPPOSEMENT","1785","195613","191739","194108","47238","NA","NA","NA","NA","NA","192240","NA","NA","NA","191237","NA","191211","1942","195813","NA","NA","NA","192280","1785","1928","NA","NA","193480","193505","191211","192240","192260","morph21_Oliver/Morris","20","30710","33","yes","1920","8"
"350","","61.76470588235294","61.76470588235294","920.2352941176471","920.2352941176471","black","no","xpyriment","legacy","legacy","0","208","NA","uniform","NA","NA","NA","1","undefined","1","0","33","33","33","0","33","33","33","NA","0","33","NA","NA","0","33","NA","33","0","33","NA","NA","NA","33","0","0","NA","NA","33","33","33","33","33","34","z","Wed Nov  8 15:06:48 2023","Executes Python code","yes","m21-ba-lexicalDecision.osexp","C:\Users\ekealey\Desktop","no","mono","no","18","no","white","no","yes","1080","legacy","33","33","C:/Users/ekealey/Desktop/subject-228.csv","xpyriment","Lentiform Loewenfeld","3.3.11","0","z","NA","NA","NA","NA","space","z","578","NA","NA","NA","NA","45295","578","2","legacy","1024","2","48000","-16","AB_m21","228","even","FILL_NW","DARF","1785","199161","197415","194108","47238","NA","NA","NA","NA","NA","197915","NA","NA","NA","196914","NA","196886","1942","199511","NA","NA","NA","197955","1785","1928","NA","NA","198534","198557","196886","197915","197935","morph21_Oliver/Morris","21","31288","34","yes","1920","10"
"250","","62.857142857142854","62.857142857142854","919.5428571428571","919.5428571428571","black","no","xpyriment","legacy","legacy","0","208","NA","uniform","NA","NA","NA","1","undefined","1","0","34","34","34","0","34","34","34","NA","0","34","NA","NA","0","34","NA","34","0","34","NA","NA","NA","34","0","0","NA","NA","34","34","34","34","34","35","z","Wed Nov  8 15:06:48 2023","Executes Python code","yes","m21-ba-lexicalDecision.osexp","C:\Users\ekealey\Desktop","no","mono","no","18","no","white","no","yes","1080","legacy","34","34","C:/Users/ekealey/Desktop/subject-228.csv","xpyriment","Lentiform Loewenfeld","3.3.11","0","z","NA","NA","NA","NA","space","z","896","NA","NA","NA","NA","45295","896","2","legacy","1024","2","48000","-16","AB_m21","228","even","FILL_NW","POLT","1785","203152","201088","194108","47238","NA","NA","NA","NA","NA","201588","NA","NA","NA","200587","NA","200556","1942","203403","NA","NA","NA","201629","1785","1928","NA","NA","202525","202549","200556","201588","201609","morph21_Oliver/Morris","22","32184","35","yes","1920","38"
"400","","61.111111111111114","61.111111111111114","924.3333333333334","924.3333333333334","black","no","xpyriment","legacy","legacy","0","205","NA","uniform","NA","NA","NA","0","undefined","0","0","35","35","35","0","35","35","35","NA","0","35","NA","NA","0","35","NA","35","0","35","NA","NA","NA","35","0","0","NA","NA","35","35","35","35","35","36","z","Wed Nov  8 15:06:48 2023","Executes Python code","yes","m21-ba-lexicalDecision.osexp","C:\Users\ekealey\Desktop","no","mono","no","18","no","white","no","yes","1080","legacy","35","35","C:/Users/ekealey/Desktop/subject-228.csv","xpyriment","Lentiform Loewenfeld","3.3.11","0","/","NA","NA","NA","NA","space","/","1092","NA","NA","NA","NA","45295","1092","2","legacy","1024","2","48000","-16","AB_m21","228","even","NW_S_SIMP","AIDIC","1785","208761","204995","207257","47238","NA","NA","NA","NA","NA","205495","NA","NA","NA","204495","NA","204469","1942","209162","NA","NA","NA","205536","1785","1928","NA","NA","206629","206653","204469","205495","205516","morph21_Oliver/Morris","22","33276","36","yes","1920","4"
"350","","62.16216216216216","62.16216216216216","923.6756756756756","923.6756756756756","black","no","xpyriment","legacy","legacy","0","202","NA","uniform","NA","NA","NA","1","undefined","1","0","36","36","36","0","36","36","36","NA","0","36","NA","NA","0","36","NA","36","0","36","NA","NA","NA","36","0","0","NA","NA","36","36","36","36","36","37","/","Wed Nov  8 15:06:48 2023","Executes Python code","yes","m21-ba-lexicalDecision.osexp","C:\Users\ekealey\Desktop","no","mono","no","18","no","white","no","yes","1080","legacy","36","36","C:/Users/ekealey/Desktop/subject-228.csv","xpyriment","Lentiform Loewenfeld","3.3.11","0","/","NA","NA","NA","NA","space","/","900","NA","NA","NA","NA","45295","900","2","legacy","1024","2","48000","-16","AB_m21","228","even","CW_L","JUMPING","1785","212816","210747","207257","47238","NA","NA","NA","NA","NA","211248","NA","NA","NA","210245","NA","210213","1942","213166","NA","NA","NA","211288","1785","1928","NA","NA","212189","212213","210213","211248","211268","morph21_Oliver/Morris","23","34176","37","yes","1920","30"
"250","","63.1578947368421","63.1578947368421","918.8947368421053","918.8947368421053","black","no","xpyriment","legacy","legacy","0","202","NA","uniform","NA","NA","NA","1","undefined","1","0","37","37","37","0","37","37","37","NA","0","37","NA","NA","0","37","NA","37","0","37","NA","NA","NA","37","0","0","NA","NA","37","37","37","37","37","38","/","Wed Nov  8 15:06:48 2023","Executes Python code","yes","m21-ba-lexicalDecision.osexp","C:\Users\ekealey\Desktop","no","mono","no","18","no","white","no","yes","1080","legacy","37","37","C:/Users/ekealey/Desktop/subject-228.csv","xpyriment","Lentiform Loewenfeld","3.3.11","0","/","NA","NA","NA","NA","space","/","742","NA","NA","NA","NA","45295","742","2","legacy","1024","2","48000","-16","AB_m21","228","even","CW_L","FLEXIBLE","1785","216648","214737","207257","47238","NA","NA","NA","NA","NA","215239","NA","NA","NA","214237","NA","214210","1942","216898","NA","NA","NA","215279","1785","1928","NA","NA","216021","216045","214210","215239","215259","morph21_Oliver/Morris","24","34918","38","yes","1920","22"
"250","","64.1025641025641","64.1025641025641","917.4871794871794","917.4871794871794","black","no","xpyriment","legacy","legacy","0","201","NA","uniform","NA","NA","NA","1","undefined","1","0","38","38","38","0","38","38","38","NA","0","38","NA","NA","0","38","NA","38","0","38","NA","NA","NA","38","0","0","NA","NA","38","38","38","38","38","39","/","Wed Nov  8 15:06:48 2023","Executes Python code","yes","m21-ba-lexicalDecision.osexp","C:\Users\ekealey\Desktop","no","mono","no","18","no","white","no","yes","1080","legacy","38","38","C:/Users/ekealey/Desktop/subject-228.csv","xpyriment","Lentiform Loewenfeld","3.3.11","0","/","NA","NA","NA","NA","space","/","864","NA","NA","NA","NA","45295","864","2","legacy","1024","2","48000","-16","AB_m21","228","even","CW_S","HARMLESS","1785","222075","218533","220569","47238","NA","NA","NA","NA","NA","219035","NA","NA","NA","218031","NA","217999","1942","222325","NA","NA","NA","219076","1785","1928","NA","NA","219941","219965","217999","219035","219056","morph21_Oliver/Morris","25","35782","39","yes","1920","29"
"400","","65","65","914.075","914.075","black","no","xpyriment","legacy","legacy","0","208","NA","uniform","NA","NA","NA","1","undefined","1","0","39","39","39","0","39","39","39","NA","0","39","NA","NA","0","39","NA","39","0","39","NA","NA","NA","39","0","0","NA","NA","39","39","39","39","39","40","z","Wed Nov  8 15:06:48 2023","Executes Python code","yes","m21-ba-lexicalDecision.osexp","C:\Users\ekealey\Desktop","no","mono","no","18","no","white","no","yes","1080","legacy","39","39","C:/Users/ekealey/Desktop/subject-228.csv","xpyriment","Lentiform Loewenfeld","3.3.11","0","z","NA","NA","NA","NA","space","z","781","NA","NA","NA","NA","45295","781","2","legacy","1024","2","48000","-16","AB_m21","228","even","FILL_NW","FROES","1785","225864","223913","220569","47238","NA","NA","NA","NA","NA","224413","NA","NA","NA","223413","NA","223385","1942","226264","NA","NA","NA","224455","1785","1928","NA","NA","225237","225260","223385","224413","224434","morph21_Oliver/Morris","26","36563","40","yes","1920","21"
"400","","65.85365853658537","65.85365853658537","906.9756097560976","906.9756097560976","black","no","xpyriment","legacy","legacy","0","202","NA","uniform","NA","NA","NA","1","undefined","1","0","40","40","40","0","40","40","40","NA","0","40","NA","NA","0","40","NA","40","0","40","NA","NA","NA","40","0","0","NA","NA","40","40","40","40","40","41","/","Wed Nov  8 15:06:48 2023","Executes Python code","yes","m21-ba-lexicalDecision.osexp","C:\Users\ekealey\Desktop","no","mono","no","18","no","white","no","yes","1080","legacy","40","40","C:/Users/ekealey/Desktop/subject-228.csv","xpyriment","Lentiform Loewenfeld","3.3.11","0","/","NA","NA","NA","NA","space","/","623","NA","NA","NA","NA","45295","623","2","legacy","1024","2","48000","-16","AB_m21","228","even","CW_L","SPELLER","1785","229617","227825","220569","47238","NA","NA","NA","NA","NA","228325","NA","NA","NA","227325","NA","227290","1942","230017","NA","NA","NA","228366","1785","1928","NA","NA","228989","229014","227290","228325","228346","morph21_Oliver/Morris","27","37186","41","yes","1920","3"
"400","","66.66666666666667","66.66666666666667","911.0714285714286","911.0714285714286","black","no","xpyriment","legacy","legacy","0","204","NA","uniform","NA","NA","NA","1","undefined","1","0","41","41","41","0","41","41","41","NA","0","41","NA","NA","0","41","NA","41","0","41","NA","NA","NA","41","0","0","NA","NA","41","41","41","41","41","42","z","Wed Nov  8 15:06:48 2023","Executes Python code","yes","m21-ba-lexicalDecision.osexp","C:\Users\ekealey\Desktop","no","mono","no","18","no","white","no","yes","1080","legacy","41","41","C:/Users/ekealey/Desktop/subject-228.csv","xpyriment","Lentiform Loewenfeld","3.3.11","0","z","NA","NA","NA","NA","space","z","1079","NA","NA","NA","NA","45295","1079","2","legacy","1024","2","48000","-16","AB_m21","228","even","NW_L_COMP","FLITENGE","1785","235372","231618","233867","47238","NA","NA","NA","NA","NA","232118","NA","NA","NA","231117","NA","231089","1942","235772","NA","NA","NA","232158","1785","1928","NA","NA","233238","233262","231089","232118","232138","morph21_Oliver/Morris","28","38265","42","yes","1920","3"
"300","","65.11627906976744","65.11627906976744","917.7906976744187","917.7906976744187","black","no","xpyriment","legacy","legacy","0","204","NA","uniform","NA","NA","NA","0","undefined","0","0","42","42","42","0","42","42","42","NA","0","42","NA","NA","0","42","NA","42","0","42","NA","NA","NA","42","0","0","NA","NA","42","42","42","42","42","43","z","Wed Nov  8 15:06:48 2023","Executes Python code","yes","m21-ba-lexicalDecision.osexp","C:\Users\ekealey\Desktop","no","mono","no","18","no","white","no","yes","1080","legacy","42","42","C:/Users/ekealey/Desktop/subject-228.csv","xpyriment","Lentiform Loewenfeld","3.3.11","0","None","NA","NA","NA","NA","space","None","1200","NA","NA","NA","NA","45295","1200","2","legacy","1024","2","48000","-16","AB_m21","228","even","NW_L_COMP","SHEETEL","1785","239766","237396","233867","47238","NA","NA","NA","NA","NA","237897","NA","NA","NA","236894","NA","236870","1942","240066","NA","NA","NA","237938","1785","1928","NA","NA","239138","239162","236870","237897","237918","morph21_Oliver/Morris","28","39465","43","yes","1920","5"
"300","","65.9090909090909","65.9090909090909","908.7272727272727","908.7272727272727","black","no","xpyriment","legacy","legacy","0","207","NA","uniform","NA","NA","NA","1","undefined","1","0","43","43","43","0","43","43","43","NA","0","43","NA","NA","0","43","NA","43","0","43","NA","NA","NA","43","0","0","NA","NA","43","43","43","43","43","44","/","Wed Nov  8 15:06:48 2023","Executes Python code","yes","m21-ba-lexicalDecision.osexp","C:\Users\ekealey\Desktop","no","mono","no","18","no","white","no","yes","1080","legacy","43","43","C:/Users/ekealey/Desktop/subject-228.csv","xpyriment","Lentiform Loewenfeld","3.3.11","0","/","NA","NA","NA","NA","space","/","519","NA","NA","NA","NA","45295","519","2","legacy","1024","2","48000","-16","AB_m21","228","even","FILL_W","IRON","1785","243352","241664","233867","47238","NA","NA","NA","NA","NA","242166","NA","NA","NA","241164","NA","241139","1942","243652","NA","NA","NA","242206","1785","1928","NA","NA","242725","242749","241139","242166","242186","morph21_Oliver/Morris","29","39984","44","yes","1920","33"
"350","","64.44444444444444","64.44444444444444","905.6222222222223","905.6222222222223","black","no","xpyriment","legacy","legacy","0","206","NA","uniform","NA","NA","NA","0","undefined","0","0","44","44","44","0","44","44","44","NA","0","44","NA","NA","0","44","NA","44","0","44","NA","NA","NA","44","0","0","NA","NA","44","44","44","44","44","45","z","Wed Nov  8 15:06:48 2023","Executes Python code","yes","m21-ba-lexicalDecision.osexp","C:\Users\ekealey\Desktop","no","mono","no","18","no","white","no","yes","1080","legacy","44","44","C:/Users/ekealey/Desktop/subject-228.csv","xpyriment","Lentiform Loewenfeld","3.3.11","0","/","NA","NA","NA","NA","space","/","769","NA","NA","NA","NA","45295","769","2","legacy","1024","2","48000","-16","AB_m21","228","even","NW_L_SIMP","HABITIC","1785","248679","245238","247176","47238","NA","NA","NA","NA","NA","245738","NA","NA","NA","244737","NA","244711","1942","249029","NA","NA","NA","245779","1785","1928","NA","NA","246549","246573","244711","245738","245759","morph21_Oliver/Morris","29","40753","45","yes","1920","7"
"400","","65.21739130434783","65.21739130434783","904.9565217391304","904.9565217391304","black","no","xpyriment","legacy","legacy","0","204","NA","uniform","NA","NA","NA","1","undefined","1","0","45","45","45","0","45","45","45","NA","0","45","NA","NA","0","45","NA","45","0","45","NA","NA","NA","45","0","0","NA","NA","45","45","45","45","45","46","z","Wed Nov  8 15:06:48 2023","Executes Python code","yes","m21-ba-lexicalDecision.osexp","C:\Users\ekealey\Desktop","no","mono","no","18","no","white","no","yes","1080","legacy","45","45","C:/Users/ekealey/Desktop/subject-228.csv","xpyriment","Lentiform Loewenfeld","3.3.11","0","z","NA","NA","NA","NA","space","z","875","NA","NA","NA","NA","45295","875","2","legacy","1024","2","48000","-16","AB_m21","228","even","NW_L_COMP","RIPENGE","1785","252665","250619","247176","47238","NA","NA","NA","NA","NA","251119","NA","NA","NA","250118","NA","250081","1942","253066","NA","NA","NA","251161","1785","1928","NA","NA","252037","252061","250081","251119","251141","morph21_Oliver/Morris","30","41628","46","yes","1920","4"
"250","","65.95744680851064","65.95744680851064","906.1276595744681","906.1276595744681","black","no","xpyriment","legacy","legacy","0","201","NA","uniform","NA","NA","NA","1","undefined","1","0","46","46","46","0","46","46","46","NA","0","46","NA","NA","0","46","NA","46","0","46","NA","NA","NA","46","0","0","NA","NA","46","46","46","46","46","47","/","Wed Nov  8 15:06:48 2023","Executes Python code","yes","m21-ba-lexicalDecision.osexp","C:\Users\ekealey\Desktop","no","mono","no","18","no","white","no","yes","1080","legacy","46","46","C:/Users/ekealey/Desktop/subject-228.csv","xpyriment","Lentiform Loewenfeld","3.3.11","0","/","NA","NA","NA","NA","space","/","960","NA","NA","NA","NA","45295","960","2","legacy","1024","2","48000","-16","AB_m21","228","even","CW_S","HUGELY","1785","256811","254679","247176","47238","NA","NA","NA","NA","NA","255179","NA","NA","NA","254177","NA","254149","1942","257061","NA","NA","NA","255220","1785","1928","NA","NA","256181","256207","254149","255179","255200","morph21_Oliver/Morris","31","42588","47","yes","1920","35"
"350","","66.66666666666667","66.66666666666667","898.9375","898.9375","black","no","xpyriment","legacy","legacy","0","202","NA","uniform","NA","NA","NA","1","undefined","1","0","47","47","47","0","47","47","47","NA","0","47","NA","NA","0","47","NA","47","0","47","NA","NA","NA","47","0","0","NA","NA","47","47","47","47","47","48","/","Wed Nov  8 15:06:48 2023","Executes Python code","yes","m21-ba-lexicalDecision.osexp","C:\Users\ekealey\Desktop","no","mono","no","18","no","white","no","yes","1080","legacy","47","47","C:/Users/ekealey/Desktop/subject-228.csv","xpyriment","Lentiform Loewenfeld","3.3.11","0","/","NA","NA","NA","NA","space","/","561","NA","NA","NA","NA","45295","561","2","legacy","1024","2","48000","-16","AB_m21","228","even","CW_L","KICKING","1785","261887","258654","260384","47238","NA","NA","NA","NA","NA","259155","NA","NA","NA","258154","NA","258126","1942","262237","NA","NA","NA","259195","1785","1928","NA","NA","259757","259780","258126","259155","259175","morph21_Oliver/Morris","32","43149","48","yes","1920","23"
"400","","67.34693877551021","67.34693877551021","891.1224489795918","891.1224489795918","black","no","xpyriment","legacy","legacy","0","207","NA","uniform","NA","NA","NA","1","undefined","1","0","48","48","48","0","48","48","48","NA","0","48","NA","NA","0","48","NA","48","0","48","NA","NA","NA","48","0","0","NA","NA","48","48","48","48","48","49","/","Wed Nov  8 15:06:48 2023","Executes Python code","yes","m21-ba-lexicalDecision.osexp","C:\Users\ekealey\Desktop","no","mono","no","18","no","white","no","yes","1080","legacy","48","48","C:/Users/ekealey/Desktop/subject-228.csv","xpyriment","Lentiform Loewenfeld","3.3.11","0","/","NA","NA","NA","NA","space","/","516","NA","NA","NA","NA","45295","516","2","legacy","1024","2","48000","-16","AB_m21","228","even","FILL_W","QUIT","1785","265507","263819","260384","47238","NA","NA","NA","NA","NA","264319","NA","NA","NA","263318","NA","263289","1942","265907","NA","NA","NA","264360","1785","1928","NA","NA","264877","264903","263289","264319","264340","morph21_Oliver/Morris","33","43665","49","yes","1920","21"
"200","","68","68","896.14","896.14","black","no","xpyriment","legacy","legacy","0","208","NA","uniform","NA","NA","NA","1","undefined","1","0","49","49","49","0","49","49","49","NA","0","49","NA","NA","0","49","NA","49","0","49","NA","NA","NA","49","0","0","NA","NA","49","49","49","49","49","50","z","Wed Nov  8 15:06:48 2023","Executes Python code","yes","m21-ba-lexicalDecision.osexp","C:\Users\ekealey\Desktop","no","mono","no","18","no","white","no","yes","1080","legacy","49","49","C:/Users/ekealey/Desktop/subject-228.csv","xpyriment","Lentiform Loewenfeld","3.3.11","0","z","NA","NA","NA","NA","space","z","1142","NA","NA","NA","NA","45295","1142","2","legacy","1024","2","48000","-16","AB_m21","228","even","FILL_NW","DARM","1785","269802","267489","260384","47238","NA","NA","NA","NA","NA","267989","NA","NA","NA","266989","NA","266959","1942","270002","NA","NA","NA","268030","1785","1928","NA","NA","269173","269198","266959","267989","268010","morph21_Oliver/Morris","34","44807","50","yes","1920","11"
"250","","66.66666666666667","66.66666666666667","902.0980392156863","902.0980392156863","black","no","xpyriment","legacy","legacy","0","206","NA","uniform","NA","NA","NA","0","undefined","0","0","50","50","50","0","50","50","50","NA","0","50","NA","NA","0","50","NA","50","0","50","NA","NA","NA","50","0","0","NA","NA","50","50","50","50","50","51","z","Wed Nov  8 15:06:48 2023","Executes Python code","yes","m21-ba-lexicalDecision.osexp","C:\Users\ekealey\Desktop","no","mono","no","18","no","white","no","yes","1080","legacy","50","50","C:/Users/ekealey/Desktop/subject-228.csv","xpyriment","Lentiform Loewenfeld","3.3.11","0","None","NA","NA","NA","NA","space","None","1200","NA","NA","NA","NA","45295","1200","2","legacy","1024","2","48000","-16","AB_m21","228","even","NW_L_SIMP","BEARIST","1785","275448","271576","273944","47238","NA","NA","NA","NA","NA","272076","NA","NA","NA","271075","NA","271047","1942","275698","NA","NA","NA","272117","1785","1928","NA","NA","273317","273341","271047","272076","272097","morph21_Oliver/Morris","34","46007","51","yes","1920","25"
"200","","67.3076923076923","67.3076923076923","904.2692307692307","904.2692307692307","black","no","xpyriment","legacy","legacy","0","207","NA","uniform","NA","NA","NA","1","undefined","1","0","51","51","51","0","51","51","51","NA","0","51","NA","NA","0","51","NA","51","0","51","NA","NA","NA","51","0","0","NA","NA","51","51","51","51","51","52","/","Wed Nov  8 15:06:48 2023","Executes Python code","yes","m21-ba-lexicalDecision.osexp","C:\Users\ekealey\Desktop","no","mono","no","18","no","white","no","yes","1080","legacy","51","51","C:/Users/ekealey/Desktop/subject-228.csv","xpyriment","Lentiform Loewenfeld","3.3.11","0","/","NA","NA","NA","NA","space","/","1015","NA","NA","NA","NA","45295","1015","2","legacy","1024","2","48000","-16","AB_m21","228","even","FILL_W","BRASS","1785","279458","277271","273944","47238","NA","NA","NA","NA","NA","277772","NA","NA","NA","276769","NA","276738","1942","279658","NA","NA","NA","277813","1785","1928","NA","NA","278829","278853","276738","277772","277793","morph21_Oliver/Morris","35","47022","52","yes","1920","10"
"300","","66.0377358490566","66.0377358490566","908.0566037735849","908.0566037735849","black","no","xpyriment","legacy","legacy","0","206","NA","uniform","NA","NA","NA","0","undefined","0","0","52","52","52","0","52","52","52","NA","0","52","NA","NA","0","52","NA","52","0","52","NA","NA","NA","52","0","0","NA","NA","52","52","52","52","52","53","z","Wed Nov  8 15:06:48 2023","Executes Python code","yes","m21-ba-lexicalDecision.osexp","C:\Users\ekealey\Desktop","no","mono","no","18","no","white","no","yes","1080","legacy","52","52","C:/Users/ekealey/Desktop/subject-228.csv","xpyriment","Lentiform Loewenfeld","3.3.11","0","/","NA","NA","NA","NA","space","/","1105","NA","NA","NA","NA","45295","1105","2","legacy","1024","2","48000","-16","AB_m21","228","even","NW_L_SIMP","TAXFUL","1785","283551","281279","273944","47238","NA","NA","NA","NA","NA","281779","NA","NA","NA","280779","NA","280751","1942","283851","NA","NA","NA","281819","1785","1928","NA","NA","282925","282948","280751","281779","281799","morph21_Oliver/Morris","35","48127","53","yes","1920","6"
"200","","66.66666666666667","66.66666666666667","903.5","903.5","black","no","xpyriment","legacy","legacy","0","208","NA","uniform","NA","NA","NA","1","undefined","1","0","53","53","53","0","53","53","53","NA","0","53","NA","NA","0","53","NA","53","0","53","NA","NA","NA","53","0","0","NA","NA","53","53","53","53","53","54","z","Wed Nov  8 15:06:48 2023","Executes Python code","yes","m21-ba-lexicalDecision.osexp","C:\Users\ekealey\Desktop","no","mono","no","18","no","white","no","yes","1080","legacy","53","53","C:/Users/ekealey/Desktop/subject-228.csv","xpyriment","Lentiform Loewenfeld","3.3.11","0","z","NA","NA","NA","NA","space","z","662","NA","NA","NA","NA","45295","662","2","legacy","1024","2","48000","-16","AB_m21","228","even","FILL_NW","SMADE","1785","288769","285432","287266","47238","NA","NA","NA","NA","NA","285933","NA","NA","NA","284929","NA","284905","1942","288969","NA","NA","NA","285974","1785","1928","NA","NA","286637","286661","284905","285933","285954","morph21_Oliver/Morris","36","48789","54","yes","1920","42"
"200","","67.27272727272727","67.27272727272727","898.4727272727273","898.4727272727273","black","no","xpyriment","legacy","legacy","0","201","NA","uniform","NA","NA","NA","1","undefined","1","0","54","54","54","0","54","54","54","NA","0","54","NA","NA","0","54","NA","54","0","54","NA","NA","NA","54","0","0","NA","NA","54","54","54","54","54","55","/","Wed Nov  8 15:06:48 2023","Executes Python code","yes","m21-ba-lexicalDecision.osexp","C:\Users\ekealey\Desktop","no","mono","no","18","no","white","no","yes","1080","legacy","54","54","C:/Users/ekealey/Desktop/subject-228.csv","xpyriment","Lentiform Loewenfeld","3.3.11","0","/","NA","NA","NA","NA","space","/","627","NA","NA","NA","NA","45295","627","2","legacy","1024","2","48000","-16","AB_m21","228","even","CW_S","BOLDNESS","1785","292339","290538","287266","47238","NA","NA","NA","NA","NA","291040","NA","NA","NA","290036","NA","290006","1942","292539","NA","NA","NA","291081","1785","1928","NA","NA","291709","291734","290006","291040","291060","morph21_Oliver/Morris","37","49416","55","yes","1920","41"
"350","","67.85714285714286","67.85714285714286","899.6607142857143","899.6607142857143","black","no","xpyriment","legacy","legacy","0","201","NA","uniform","NA","NA","NA","1","undefined","1","0","55","55","55","0","55","55","55","NA","0","55","NA","NA","0","55","NA","55","0","55","NA","NA","NA","55","0","0","NA","NA","55","55","55","55","55","56","/","Wed Nov  8 15:06:48 2023","Executes Python code","yes","m21-ba-lexicalDecision.osexp","C:\Users\ekealey\Desktop","no","mono","no","18","no","white","no","yes","1080","legacy","55","55","C:/Users/ekealey/Desktop/subject-228.csv","xpyriment","Lentiform Loewenfeld","3.3.11","0","/","NA","NA","NA","NA","space","/","965","NA","NA","NA","NA","45295","965","2","legacy","1024","2","48000","-16","AB_m21","228","even","CW_S","LENDER","1785","296236","294098","287266","47238","NA","NA","NA","NA","NA","294599","NA","NA","NA","293597","NA","293573","1942","296586","NA","NA","NA","294639","1785","1928","NA","NA","295605","295629","293573","294598","294619","morph21_Oliver/Morris","38","50381","56","yes","1920","11"
"350","","68.42105263157895","68.42105263157895","902.2631578947369","902.2631578947369","black","no","xpyriment","legacy","legacy","0","207","NA","uniform","NA","NA","NA","1","undefined","1","0","56","56","56","0","56","56","56","NA","0","56","NA","NA","0","56","NA","56","0","56","NA","NA","NA","56","0","0","NA","NA","56","56","56","56","56","57","/","Wed Nov  8 15:06:48 2023","Executes Python code","yes","m21-ba-lexicalDecision.osexp","C:\Users\ekealey\Desktop","no","mono","no","18","no","white","no","yes","1080","legacy","56","56","C:/Users/ekealey/Desktop/subject-228.csv","xpyriment","Lentiform Loewenfeld","3.3.11","0","/","NA","NA","NA","NA","space","/","1048","NA","NA","NA","NA","45295","1048","2","legacy","1024","2","48000","-16","AB_m21","228","even","FILL_W","LIFT","1785","301883","298159","300378","47238","NA","NA","NA","NA","NA","298659","NA","NA","NA","297659","NA","297631","1942","302233","NA","NA","NA","298701","1785","1928","NA","NA","299749","299773","297630","298659","298680","morph21_Oliver/Morris","39","51429","57","yes","1920","39"
"400","","67.24137931034483","67.24137931034483","907.3965517241379","907.3965517241379","black","no","xpyriment","legacy","legacy","0","206","NA","uniform","NA","NA","NA","0","undefined","0","0","57","57","57","0","57","57","57","NA","0","57","NA","NA","0","57","NA","57","0","57","NA","NA","NA","57","0","0","NA","NA","57","57","57","57","57","58","z","Wed Nov  8 15:06:48 2023","Executes Python code","yes","m21-ba-lexicalDecision.osexp","C:\Users\ekealey\Desktop","no","mono","no","18","no","white","no","yes","1080","legacy","57","57","C:/Users/ekealey/Desktop/subject-228.csv","xpyriment","Lentiform Loewenfeld","3.3.11","0","None","NA","NA","NA","NA","space","None","1200","NA","NA","NA","NA","45295","1200","2","legacy","1024","2","48000","-16","AB_m21","228","even","NW_L_SIMP","VALIDER","1785","306199","303828","300378","47238","NA","NA","NA","NA","NA","304330","NA","NA","NA","303327","NA","303301","1942","306599","NA","NA","NA","304371","1785","1928","NA","NA","305571","305594","303301","304330","304350","morph21_Oliver/Morris","39","52629","58","yes","1920","23"
"400","","67.79661016949153","67.79661016949153","911.3389830508474","911.3389830508474","black","no","xpyriment","legacy","legacy","0","203","NA","uniform","NA","NA","NA","1","undefined","1","0","58","58","58","0","58","58","58","NA","0","58","NA","NA","0","58","NA","58","0","58","NA","NA","NA","58","0","0","NA","NA","58","58","58","58","58","59","z","Wed Nov  8 15:06:48 2023","Executes Python code","yes","m21-ba-lexicalDecision.osexp","C:\Users\ekealey\Desktop","no","mono","no","18","no","white","no","yes","1080","legacy","58","58","C:/Users/ekealey/Desktop/subject-228.csv","xpyriment","Lentiform Loewenfeld","3.3.11","0","z","NA","NA","NA","NA","space","z","1140","NA","NA","NA","NA","45295","1140","2","legacy","1024","2","48000","-16","AB_m21","228","even","NW_S_COMP","ARIDILM","1785","310481","308170","300378","47238","NA","NA","NA","NA","NA","308671","NA","NA","NA","307668","NA","307641","1942","310881","NA","NA","NA","308712","1785","1928","NA","NA","309853","309878","307641","308671","308692","morph21_Oliver/Morris","40","53769","59","yes","1920","9"
"250","","66.66666666666667","66.66666666666667","916.15","916.15","black","no","xpyriment","legacy","legacy","0","207","NA","uniform","NA","NA","NA","0","undefined","0","0","59","59","59","0","59","59","59","NA","0","59","NA","NA","0","59","NA","59","0","59","NA","NA","NA","59","0","0","NA","NA","59","59","59","59","59","60","/","Wed Nov  8 15:06:48 2023","Executes Python code","yes","m21-ba-lexicalDecision.osexp","C:\Users\ekealey\Desktop","no","mono","no","18","no","white","no","yes","1080","legacy","59","59","C:/Users/ekealey/Desktop/subject-228.csv","xpyriment","Lentiform Loewenfeld","3.3.11","0","None","NA","NA","NA","NA","space","None","1200","NA","NA","NA","NA","45295","1200","2","legacy","1024","2","48000","-16","AB_m21","228","even","FILL_W","SPLICE","1785","316334","312458","314827","47238","NA","NA","NA","NA","NA","312959","NA","NA","NA","311957","NA","311928","1942","316585","NA","NA","NA","313000","1785","1928","NA","NA","314200","314224","311928","312959","312980","morph21_Oliver/Morris","40","54969","60","yes","1920","22"
"350","","67.21311475409836","67.21311475409836","915.2786885245902","915.2786885245902","black","no","xpyriment","legacy","legacy","0","207","NA","uniform","NA","NA","NA","1","undefined","1","0","60","60","60","0","60","60","60","NA","0","60","NA","NA","0","60","NA","60","0","60","NA","NA","NA","60","0","0","NA","NA","60","60","60","60","60","61","/","Wed Nov  8 15:06:48 2023","Executes Python code","yes","m21-ba-lexicalDecision.osexp","C:\Users\ekealey\Desktop","no","mono","no","18","no","white","no","yes","1080","legacy","60","60","C:/Users/ekealey/Desktop/subject-228.csv","xpyriment","Lentiform Loewenfeld","3.3.11","0","/","NA","NA","NA","NA","space","/","863","NA","NA","NA","NA","45295","863","2","legacy","1024","2","48000","-16","AB_m21","228","even","FILL_W","FAINT","1785","320217","318185","314827","47238","NA","NA","NA","NA","NA","318685","NA","NA","NA","317685","NA","317659","1942","320567","NA","NA","NA","318726","1785","1928","NA","NA","319589","319613","317658","318685","318706","morph21_Oliver/Morris","41","55832","61","yes","1920","31"
"200","","67.74193548387096","67.74193548387096","912.483870967742","912.483870967742","black","no","xpyriment","legacy","legacy","0","203","NA","uniform","NA","NA","NA","1","undefined","1","0","61","61","61","0","61","61","61","NA","0","61","NA","NA","0","61","NA","61","0","61","NA","NA","NA","61","0","0","NA","NA","61","61","61","61","61","62","z","Wed Nov  8 15:06:48 2023","Executes Python code","yes","m21-ba-lexicalDecision.osexp","C:\Users\ekealey\Desktop","no","mono","no","18","no","white","no","yes","1080","legacy","61","61","C:/Users/ekealey/Desktop/subject-228.csv","xpyriment","Lentiform Loewenfeld","3.3.11","0","z","NA","NA","NA","NA","space","z","742","NA","NA","NA","NA","45295","742","2","legacy","1024","2","48000","-16","AB_m21","228","even","NW_S_COMP","FANFIL","1785","324079","322167","314827","47238","NA","NA","NA","NA","NA","322669","NA","NA","NA","321667","NA","321640","1942","324279","NA","NA","NA","322710","1785","1928","NA","NA","323453","323476","321640","322669","322690","morph21_Oliver/Morris","42","56574","62","yes","1920","6"
"350","","68.25396825396825","68.25396825396825","908.7142857142857","908.7142857142857","black","no","xpyriment","legacy","legacy","0","207","NA","uniform","NA","NA","NA","1","undefined","1","0","62","62","62","0","62","62","62","NA","0","62","NA","NA","0","62","NA","62","0","62","NA","NA","NA","62","0","0","NA","NA","62","62","62","62","62","63","/","Wed Nov  8 15:06:48 2023","Executes Python code","yes","m21-ba-lexicalDecision.osexp","C:\Users\ekealey\Desktop","no","mono","no","18","no","white","no","yes","1080","legacy","62","62","C:/Users/ekealey/Desktop/subject-228.csv","xpyriment","Lentiform Loewenfeld","3.3.11","0","/","NA","NA","NA","NA","space","/","675","NA","NA","NA","NA","45295","675","2","legacy","1024","2","48000","-16","AB_m21","228","even","FILL_W","LEAK","1785","329248","325898","327745","47238","NA","NA","NA","NA","NA","326400","NA","NA","NA","325397","NA","325372","1942","329598","NA","NA","NA","326441","1785","1928","NA","NA","327117","327142","325372","326400","326421","morph21_Oliver/Morris","43","57249","63","yes","1920","9"
"300","","67.1875","67.1875","913.265625","913.265625","black","no","xpyriment","legacy","legacy","0","205","NA","uniform","NA","NA","NA","0","undefined","0","0","63","63","63","0","63","63","63","NA","0","63","NA","NA","0","63","NA","63","0","63","NA","NA","NA","63","0","0","NA","NA","63","63","63","63","63","64","z","Wed Nov  8 15:06:48 2023","Executes Python code","yes","m21-ba-lexicalDecision.osexp","C:\Users\ekealey\Desktop","no","mono","no","18","no","white","no","yes","1080","legacy","63","63","C:/Users/ekealey/Desktop/subject-228.csv","xpyriment","Lentiform Loewenfeld","3.3.11","0","None","NA","NA","NA","NA","space","None","1200","NA","NA","NA","NA","45295","1200","2","legacy","1024","2","48000","-16","AB_m21","228","even","NW_S_SIMP","HELMETOUS","1785","333574","331204","327745","47238","NA","NA","NA","NA","NA","331705","NA","NA","NA","330703","NA","330676","1942","333874","NA","NA","NA","331745","1785","1928","NA","NA","332945","332971","330676","331705","331725","morph21_Oliver/Morris","43","58449","64","yes","1920","14"
"400","","67.6923076923077","67.6923076923077","909.4769230769231","909.4769230769231","black","no","xpyriment","legacy","legacy","0","202","NA","uniform","NA","NA","NA","1","undefined","1","0","64","64","64","0","64","64","64","NA","0","64","NA","NA","0","64","NA","64","0","64","NA","NA","NA","64","0","0","NA","NA","64","64","64","64","64","65","/","Wed Nov  8 15:06:48 2023","Executes Python code","yes","m21-ba-lexicalDecision.osexp","C:\Users\ekealey\Desktop","no","mono","no","18","no","white","no","yes","1080","legacy","64","64","C:/Users/ekealey/Desktop/subject-228.csv","xpyriment","Lentiform Loewenfeld","3.3.11","0","/","NA","NA","NA","NA","space","/","667","NA","NA","NA","NA","45295","667","2","legacy","1024","2","48000","-16","AB_m21","228","even","CW_L","CLOUDLESS","1785","337275","335435","327745","47238","NA","NA","NA","NA","NA","335937","NA","NA","NA","334935","NA","334908","1942","337675","NA","NA","NA","335978","1785","1928","NA","NA","336645","336671","334908","335937","335958","morph21_Oliver/Morris","44","59116","65","yes","1920","33"
"250","","68.18181818181819","68.18181818181819","909.6212121212121","909.6212121212121","black","no","xpyriment","legacy","legacy","0","207","NA","uniform","NA","NA","NA","1","undefined","1","0","65","65","65","0","65","65","65","NA","0","65","NA","NA","0","65","NA","65","0","65","NA","NA","NA","65","0","0","NA","NA","65","65","65","65","65","66","/","Wed Nov  8 15:06:48 2023","Executes Python code","yes","m21-ba-lexicalDecision.osexp","C:\Users\ekealey\Desktop","no","mono","no","18","no","white","no","yes","1080","legacy","65","65","C:/Users/ekealey/Desktop/subject-228.csv","xpyriment","Lentiform Loewenfeld","3.3.11","0","/","NA","NA","NA","NA","space","/","919","NA","NA","NA","NA","45295","919","2","legacy","1024","2","48000","-16","AB_m21","228","even","FILL_W","WEAVE","1785","342850","339256","341345","47238","NA","NA","NA","NA","NA","339757","NA","NA","NA","338756","NA","338727","1942","343100","NA","NA","NA","339797","1785","1928","NA","NA","340717","340741","338727","339757","339777","morph21_Oliver/Morris","45","60035","66","yes","1920","12"
"300","","68.65671641791045","68.65671641791045","907.776119402985","907.776119402985","black","no","xpyriment","legacy","legacy","0","201","NA","uniform","NA","NA","NA","1","undefined","1","0","66","66","66","0","66","66","66","NA","0","66","NA","NA","0","66","NA","66","0","66","NA","NA","NA","66","0","0","NA","NA","66","66","66","66","66","67","/","Wed Nov  8 15:06:48 2023","Executes Python code","yes","m21-ba-lexicalDecision.osexp","C:\Users\ekealey\Desktop","no","mono","no","18","no","white","no","yes","1080","legacy","66","66","C:/Users/ekealey/Desktop/subject-228.csv","xpyriment","Lentiform Loewenfeld","3.3.11","0","/","NA","NA","NA","NA","space","/","786","NA","NA","NA","NA","45295","786","2","legacy","1024","2","48000","-16","AB_m21","228","even","CW_S","INSISTENT","1785","346642","344685","341345","47238","NA","NA","NA","NA","NA","345185","NA","NA","NA","344184","NA","344154","1942","346942","NA","NA","NA","345226","1785","1928","NA","NA","346013","346038","344154","345185","345206","morph21_Oliver/Morris","46","60821","67","yes","1920","9"
"200","","69.11764705882354","69.11764705882354","902.9411764705883","902.9411764705883","black","no","xpyriment","legacy","legacy","0","207","NA","uniform","NA","NA","NA","1","undefined","1","0","67","67","67","0","67","67","67","NA","0","67","NA","NA","0","67","NA","67","0","67","NA","NA","NA","67","0","0","NA","NA","67","67","67","67","67","68","/","Wed Nov  8 15:06:48 2023","Executes Python code","yes","m21-ba-lexicalDecision.osexp","C:\Users\ekealey\Desktop","no","mono","no","18","no","white","no","yes","1080","legacy","67","67","C:/Users/ekealey/Desktop/subject-228.csv","xpyriment","Lentiform Loewenfeld","3.3.11","0","/","NA","NA","NA","NA","space","/","579","NA","NA","NA","NA","45295","579","2","legacy","1024","2","48000","-16","AB_m21","228","even","FILL_W","TAX","1785","350298","348548","341345","47238","NA","NA","NA","NA","NA","349049","NA","NA","NA","348047","NA","348020","1942","350498","NA","NA","NA","349089","1785","1928","NA","NA","349669","349693","348020","349048","349069","morph21_Oliver/Morris","47","61400","68","yes","1920","45"
"400","","68.1159420289855","68.1159420289855","903.3623188405797","903.3623188405797","black","no","xpyriment","legacy","legacy","0","206","NA","uniform","NA","NA","NA","0","undefined","0","0","68","68","68","0","68","68","68","NA","0","68","NA","NA","0","68","NA","68","0","68","NA","NA","NA","68","0","0","NA","NA","68","68","68","68","68","69","z","Wed Nov  8 15:06:48 2023","Executes Python code","yes","m21-ba-lexicalDecision.osexp","C:\Users\ekealey\Desktop","no","mono","no","18","no","white","no","yes","1080","legacy","68","68","C:/Users/ekealey/Desktop/subject-228.csv","xpyriment","Lentiform Loewenfeld","3.3.11","0","/","NA","NA","NA","NA","space","/","932","NA","NA","NA","NA","45295","932","2","legacy","1024","2","48000","-16","AB_m21","228","even","NW_L_SIMP","BLOODER","1785","355682","352075","354177","47238","NA","NA","NA","NA","NA","352575","NA","NA","NA","351573","NA","351547","1942","356082","NA","NA","NA","352616","1785","1928","NA","NA","353548","353574","351546","352575","352596","morph21_Oliver/Morris","47","62332","69","yes","1920","24"
"250","","67.14285714285714","67.14285714285714","907.6","907.6","black","no","xpyriment","legacy","legacy","0","204","NA","uniform","NA","NA","NA","0","undefined","0","0","69","69","69","0","69","69","69","NA","0","69","NA","NA","0","69","NA","69","0","69","NA","NA","NA","69","0","0","NA","NA","69","69","69","69","69","70","z","Wed Nov  8 15:06:48 2023","Executes Python code","yes","m21-ba-lexicalDecision.osexp","C:\Users\ekealey\Desktop","no","mono","no","18","no","white","no","yes","1080","legacy","69","69","C:/Users/ekealey/Desktop/subject-228.csv","xpyriment","Lentiform Loewenfeld","3.3.11","0","None","NA","NA","NA","NA","space","None","1200","NA","NA","NA","NA","45295","1200","2","legacy","1024","2","48000","-16","AB_m21","228","even","NW_L_COMP","STIRANGE","1785","360092","357722","354177","47238","NA","NA","NA","NA","NA","358223","NA","NA","NA","357222","NA","357193","1942","360342","NA","NA","NA","358264","1785","1928","NA","NA","359464","359487","357193","358223","358244","morph21_Oliver/Morris","47","63532","70","yes","1920","1"
"250","","67.6056338028169","67.6056338028169","910.1267605633802","910.1267605633802","black","no","xpyriment","legacy","legacy","0","201","NA","uniform","NA","NA","NA","1","undefined","1","0","70","70","70","0","70","70","70","NA","0","70","NA","NA","0","70","NA","70","0","70","NA","NA","NA","70","0","0","NA","NA","70","70","70","70","70","71","/","Wed Nov  8 15:06:48 2023","Executes Python code","yes","m21-ba-lexicalDecision.osexp","C:\Users\ekealey\Desktop","no","mono","no","18","no","white","no","yes","1080","legacy","70","70","C:/Users/ekealey/Desktop/subject-228.csv","xpyriment","Lentiform Loewenfeld","3.3.11","0","/","NA","NA","NA","NA","space","/","1087","NA","NA","NA","NA","45295","1087","2","legacy","1024","2","48000","-16","AB_m21","228","even","CW_S","MOSSY","1785","364202","361944","354177","47238","NA","NA","NA","NA","NA","362445","NA","NA","NA","361444","NA","361416","1942","364452","NA","NA","NA","362486","1785","1928","NA","NA","363573","363597","361416","362445","362466","morph21_Oliver/Morris","48","64619","71","yes","1920","47"
"250","","68.05555555555556","68.05555555555556","907.7361111111111","907.7361111111111","black","no","xpyriment","legacy","legacy","0","202","NA","uniform","NA","NA","NA","1","undefined","1","0","71","71","71","0","71","71","71","NA","0","71","NA","NA","0","71","NA","71","0","71","NA","NA","NA","71","0","0","NA","NA","71","71","71","71","71","72","/","Wed Nov  8 15:06:48 2023","Executes Python code","yes","m21-ba-lexicalDecision.osexp","C:\Users\ekealey\Desktop","no","mono","no","18","no","white","no","yes","1080","legacy","71","71","C:/Users/ekealey/Desktop/subject-228.csv","xpyriment","Lentiform Loewenfeld","3.3.11","0","/","NA","NA","NA","NA","space","/","738","NA","NA","NA","NA","45295","738","2","legacy","1024","2","48000","-16","AB_m21","228","even","CW_L","CREAMY","1785","369433","366021","367928","47238","NA","NA","NA","NA","NA","366521","NA","NA","NA","365521","NA","365492","1942","369683","NA","NA","NA","366562","1785","1928","NA","NA","367301","367324","365491","366521","366542","morph21_Oliver/Morris","49","65357","72","yes","1920","49"
"400","","68.4931506849315","68.4931506849315","905.4520547945206","905.4520547945206","black","no","xpyriment","legacy","legacy","0","201","NA","uniform","NA","NA","NA","1","undefined","1","0","72","72","72","0","72","72","72","NA","0","72","NA","NA","0","72","NA","72","0","72","NA","NA","NA","72","0","0","NA","NA","72","72","72","72","72","73","/","Wed Nov  8 15:06:48 2023","Executes Python code","yes","m21-ba-lexicalDecision.osexp","C:\Users\ekealey\Desktop","no","mono","no","18","no","white","no","yes","1080","legacy","72","72","C:/Users/ekealey/Desktop/subject-228.csv","xpyriment","Lentiform Loewenfeld","3.3.11","0","/","NA","NA","NA","NA","space","/","741","NA","NA","NA","NA","45295","741","2","legacy","1024","2","48000","-16","AB_m21","228","even","CW_S","DIETARY","1785","373184","371273","367928","47238","NA","NA","NA","NA","NA","371774","NA","NA","NA","370772","NA","370744","1942","373584","NA","NA","NA","371815","1785","1928","NA","NA","372557","372581","370744","371774","371795","morph21_Oliver/Morris","50","66098","73","yes","1920","6"
"350","","68.91891891891892","68.91891891891892","903.4459459459459","903.4459459459459","black","no","xpyriment","legacy","legacy","0","207","NA","uniform","NA","NA","NA","1","undefined","1","0","73","73","73","0","73","73","73","NA","0","73","NA","NA","0","73","NA","73","0","73","NA","NA","NA","73","0","0","NA","NA","73","73","73","73","73","74","/","Wed Nov  8 15:06:48 2023","Executes Python code","yes","m21-ba-lexicalDecision.osexp","C:\Users\ekealey\Desktop","no","mono","no","18","no","white","no","yes","1080","legacy","73","73","C:/Users/ekealey/Desktop/subject-228.csv","xpyriment","Lentiform Loewenfeld","3.3.11","0","/","NA","NA","NA","NA","space","/","757","NA","NA","NA","NA","45295","757","2","legacy","1024","2","48000","-16","AB_m21","228","even","FILL_W","BRISK","1785","377080","375154","367928","47238","NA","NA","NA","NA","NA","375654","NA","NA","NA","374654","NA","374624","1942","377430","NA","NA","NA","375695","1785","1928","NA","NA","376453","376477","374624","375654","375675","morph21_Oliver/Morris","51","66855","74","yes","1920","8"
"400","","69.33333333333333","69.33333333333333","902.7733333333333","902.7733333333333","black","no","xpyriment","legacy","legacy","0","204","NA","uniform","NA","NA","NA","undefined","undefined","1","0","74","74","74","0","74","74","74","NA","0","74","NA","NA","0","74","NA","74","0","74","NA","NA","NA","74","0","0","NA","NA","74","74","74","74","74","75","z","Wed Nov  8 15:06:48 2023","Executes Python code","yes","m21-ba-lexicalDecision.osexp","C:\Users\ekealey\Desktop","no","mono","no","18","no","white","no","yes","1080","legacy","74","74","C:/Users/ekealey/Desktop/subject-228.csv","xpyriment","Lentiform Loewenfeld","3.3.11","0","space","space","NA","NA","NA","space","z","7747","7747","NA","NA","NA","45295","853","2","legacy","1024","2","48000","-16","AB_m21","228","even","NW_L_COMP","PASSMANT","1785","382541","379008","381034","47238","382945","NA","NA","NA","NA","379510","NA","NA","NA","378508","NA","378482","1942","390693","NA","NA","NA","379551","1785","1928","NA","NA","380404","380429","378482","379510","379530","morph21_Oliver/Morris","52","67708","75","yes","1920","14"
"250","","68.42105263157895","68.42105263157895","906.6842105263158","906.6842105263158","black","no","xpyriment","legacy","legacy","0","201","NA","uniform","NA","NA","NA","0","undefined","0","0","75","75","75","0","75","75","75","NA","0","75","NA","NA","0","75","NA","75","0","75","NA","NA","NA","75","0","0","NA","NA","75","75","75","75","75","76","/","Wed Nov  8 15:06:48 2023","Executes Python code","yes","m21-ba-lexicalDecision.osexp","C:\Users\ekealey\Desktop","no","mono","no","18","no","white","no","yes","1080","legacy","75","75","C:/Users/ekealey/Desktop/subject-228.csv","xpyriment","Lentiform Loewenfeld","3.3.11","0","None","space","NA","NA","NA","space","None","1200","7747","NA","NA","NA","45295","1200","2","legacy","1024","2","48000","-16","AB_m21","228","even","CW_S","JAILER","1785","394660","392292","381034","47238","382945","NA","NA","NA","NA","392793","NA","NA","NA","391791","NA","391767","1942","394910","NA","NA","NA","392833","1785","1928","NA","NA","394033","394057","391767","392793","392813","morph21_Oliver/Morris","52","68908","76","yes","1920","13"
"400","","68.83116883116882","68.83116883116882","906.8961038961039","906.8961038961039","black","no","xpyriment","legacy","legacy","0","207","NA","uniform","NA","NA","NA","1","undefined","1","0","76","76","76","0","76","76","76","NA","0","76","NA","NA","0","76","NA","76","0","76","NA","NA","NA","76","0","0","NA","NA","76","76","76","76","76","77","/","Wed Nov  8 15:06:48 2023","Executes Python code","yes","m21-ba-lexicalDecision.osexp","C:\Users\ekealey\Desktop","no","mono","no","18","no","white","no","yes","1080","legacy","76","76","C:/Users/ekealey/Desktop/subject-228.csv","xpyriment","Lentiform Loewenfeld","3.3.11","0","/","space","NA","NA","NA","space","/","923","7747","NA","NA","NA","45295","923","2","legacy","1024","2","48000","-16","AB_m21","228","even","FILL_W","STEEP","1785","398610","396516","381034","47238","382945","NA","NA","NA","NA","397016","NA","NA","NA","396016","NA","395989","1942","399010","NA","NA","NA","397057","1785","1928","NA","NA","397981","398006","395989","397016","397037","morph21_Oliver/Morris","53","69831","77","yes","1920","16"
"350","","67.94871794871794","67.94871794871794","910.6538461538462","910.6538461538462","black","no","xpyriment","legacy","legacy","0","203","NA","uniform","NA","NA","NA","0","undefined","0","0","77","77","77","0","77","77","77","NA","0","77","NA","NA","0","77","NA","77","0","77","NA","NA","NA","77","0","0","NA","NA","77","77","77","77","77","78","z","Wed Nov  8 15:06:48 2023","Executes Python code","yes","m21-ba-lexicalDecision.osexp","C:\Users\ekealey\Desktop","no","mono","no","18","no","white","no","yes","1080","legacy","77","77","C:/Users/ekealey/Desktop/subject-228.csv","xpyriment","Lentiform Loewenfeld","3.3.11","0","None","space","NA","NA","NA","space","None","1200","7747","NA","NA","NA","45295","1200","2","legacy","1024","2","48000","-16","AB_m21","228","even","NW_S_COMP","WELDIG","1785","404483","400611","402979","47238","382945","NA","NA","NA","NA","401111","NA","NA","NA","400111","NA","400084","1942","404834","NA","NA","NA","401152","1785","1928","NA","NA","402352","402376","400084","401111","401131","morph21_Oliver/Morris","53","71031","78","yes","1920","21"
"200","","68.35443037974683","68.35443037974683","911.3924050632911","911.3924050632911","black","no","xpyriment","legacy","legacy","0","208","NA","uniform","NA","NA","NA","1","undefined","1","0","78","78","78","0","78","78","78","NA","0","78","NA","NA","0","78","NA","78","0","78","NA","NA","NA","78","0","0","NA","NA","78","78","78","78","78","79","z","Wed Nov  8 15:06:48 2023","Executes Python code","yes","m21-ba-lexicalDecision.osexp","C:\Users\ekealey\Desktop","no","mono","no","18","no","white","no","yes","1080","legacy","78","78","C:/Users/ekealey/Desktop/subject-228.csv","xpyriment","Lentiform Loewenfeld","3.3.11","0","z","space","NA","NA","NA","space","z","969","7747","NA","NA","NA","45295","969","2","legacy","1024","2","48000","-16","AB_m21","228","even","FILL_NW","HOITS","1785","408591","406454","402979","47238","382945","NA","NA","NA","NA","406954","NA","NA","NA","405953","NA","405925","1942","408791","NA","NA","NA","406995","1785","1928","NA","NA","407965","407988","405925","406954","406975","morph21_Oliver/Morris","54","72000","79","yes","1920","30"
"200","","67.5","67.5","915","915","black","no","xpyriment","legacy","legacy","0","201","NA","uniform","NA","NA","NA","0","undefined","0","0","79","79","79","0","79","79","79","NA","0","79","NA","NA","0","79","NA","79","0","79","NA","NA","NA","79","0","0","NA","NA","79","79","79","79","79","80","/","Wed Nov  8 15:06:48 2023","Executes Python code","yes","m21-ba-lexicalDecision.osexp","C:\Users\ekealey\Desktop","no","mono","no","18","no","white","no","yes","1080","legacy","79","79","C:/Users/ekealey/Desktop/subject-228.csv","xpyriment","Lentiform Loewenfeld","3.3.11","0","None","space","NA","NA","NA","space","None","1200","7747","NA","NA","NA","45295","1200","2","legacy","1024","2","48000","-16","AB_m21","228","even","CW_S","AMUSEMENT","1785","412736","410364","402979","47238","382945","NA","NA","NA","NA","410865","NA","NA","NA","409864","NA","409838","1942","412936","NA","NA","NA","410906","1785","1928","NA","NA","412106","412131","409838","410865","410886","morph21_Oliver/Morris","54","73200","80","yes","1920","38"
"300","","66.66666666666667","66.66666666666667","915.0493827160494","915.0493827160494","black","no","xpyriment","legacy","legacy","0","205","NA","uniform","NA","NA","NA","0","undefined","0","0","80","80","80","0","80","80","80","NA","0","80","NA","NA","0","80","NA","80","0","80","NA","NA","NA","80","0","0","NA","NA","80","80","80","80","80","81","z","Wed Nov  8 15:06:48 2023","Executes Python code","yes","m21-ba-lexicalDecision.osexp","C:\Users\ekealey\Desktop","no","mono","no","18","no","white","no","yes","1080","legacy","80","80","C:/Users/ekealey/Desktop/subject-228.csv","xpyriment","Lentiform Loewenfeld","3.3.11","0","/","space","NA","NA","NA","space","/","919","7747","NA","NA","NA","45295","919","2","legacy","1024","2","48000","-16","AB_m21","228","even","NW_S_SIMP","TILTARY","1785","418115","414520","416610","47238","382945","NA","NA","NA","NA","415020","NA","NA","NA","414018","NA","413990","1942","418415","NA","NA","NA","415061","1785","1928","NA","NA","415981","416006","413990","415020","415041","morph21_Oliver/Morris","54","74119","81","yes","1920","17"
"250","","67.07317073170732","67.07317073170732","914.1341463414634","914.1341463414634","black","no","xpyriment","legacy","legacy","0","202","NA","uniform","NA","NA","NA","1","undefined","1","0","81","81","81","0","81","81","81","NA","0","81","NA","NA","0","81","NA","81","0","81","NA","NA","NA","81","0","0","NA","NA","81","81","81","81","81","82","/","Wed Nov  8 15:06:48 2023","Executes Python code","yes","m21-ba-lexicalDecision.osexp","C:\Users\ekealey\Desktop","no","mono","no","18","no","white","no","yes","1080","legacy","81","81","C:/Users/ekealey/Desktop/subject-228.csv","xpyriment","Lentiform Loewenfeld","3.3.11","0","/","space","NA","NA","NA","space","/","840","7747","NA","NA","NA","45295","840","2","legacy","1024","2","48000","-16","AB_m21","228","even","CW_L","PUSHER","1785","422034","420024","416610","47238","382945","NA","NA","NA","NA","420524","NA","NA","NA","419524","NA","419494","1942","422284","NA","NA","NA","420564","1785","1928","NA","NA","421404","421429","419494","420524","420544","morph21_Oliver/Morris","55","74959","82","yes","1920","13"
"350","","67.46987951807229","67.46987951807229","912.3614457831326","912.3614457831326","black","no","xpyriment","legacy","legacy","0","202","NA","uniform","NA","NA","NA","1","undefined","1","0","82","82","82","0","82","82","82","NA","0","82","NA","NA","0","82","NA","82","0","82","NA","NA","NA","82","0","0","NA","NA","82","82","82","82","82","83","/","Wed Nov  8 15:06:48 2023","Executes Python code","yes","m21-ba-lexicalDecision.osexp","C:\Users\ekealey\Desktop","no","mono","no","18","no","white","no","yes","1080","legacy","82","82","C:/Users/ekealey/Desktop/subject-228.csv","xpyriment","Lentiform Loewenfeld","3.3.11","0","/","space","NA","NA","NA","space","/","767","7747","NA","NA","NA","45295","767","2","legacy","1024","2","48000","-16","AB_m21","228","even","CW_L","PAINTER","1785","425793","423856","416610","47238","382945","NA","NA","NA","NA","424357","NA","NA","NA","423355","NA","423326","1942","426143","NA","NA","NA","424397","1785","1928","NA","NA","425165","425188","423326","424356","424377","morph21_Oliver/Morris","56","75726","83","yes","1920","18"
"400","","67.85714285714286","67.85714285714286","908.4285714285714","908.4285714285714","black","no","xpyriment","legacy","legacy","0","202","NA","uniform","NA","NA","NA","1","undefined","1","0","83","83","83","0","83","83","83","NA","0","83","NA","NA","0","83","NA","83","0","83","NA","NA","NA","83","0","0","NA","NA","83","83","83","83","83","84","/","Wed Nov  8 15:06:48 2023","Executes Python code","yes","m21-ba-lexicalDecision.osexp","C:\Users\ekealey\Desktop","no","mono","no","18","no","white","no","yes","1080","legacy","83","83","C:/Users/ekealey/Desktop/subject-228.csv","xpyriment","Lentiform Loewenfeld","3.3.11","0","/","space","NA","NA","NA","space","/","582","7747","NA","NA","NA","45295","582","2","legacy","1024","2","48000","-16","AB_m21","228","even","CW_L","LOCKER","1785","430982","427727","429479","47238","382945","NA","NA","NA","NA","428229","NA","NA","NA","427226","NA","427202","1942","431382","NA","NA","NA","428269","1785","1928","NA","NA","428852","428876","427202","428229","428249","morph21_Oliver/Morris","57","76308","84","yes","1920","8"
"400","","68.23529411764706","68.23529411764706","909.7647058823529","909.7647058823529","black","no","xpyriment","legacy","legacy","0","206","NA","uniform","NA","NA","NA","1","undefined","1","0","84","84","84","0","84","84","84","NA","0","84","NA","NA","0","84","NA","84","0","84","NA","NA","NA","84","0","0","NA","NA","84","84","84","84","84","85","z","Wed Nov  8 15:06:48 2023","Executes Python code","yes","m21-ba-lexicalDecision.osexp","C:\Users\ekealey\Desktop","no","mono","no","18","no","white","no","yes","1080","legacy","84","84","C:/Users/ekealey/Desktop/subject-228.csv","xpyriment","Lentiform Loewenfeld","3.3.11","0","z","space","NA","NA","NA","space","z","1022","7747","NA","NA","NA","45295","1022","2","legacy","1024","2","48000","-16","AB_m21","228","even","NW_L_SIMP","POORITY","1785","435151","432961","429479","47238","382945","NA","NA","NA","NA","433461","NA","NA","NA","432461","NA","432429","1942","435552","NA","NA","NA","433501","1785","1928","NA","NA","434524","434548","432429","433461","433481","morph21_Oliver/Morris","58","77330","85","yes","1920","13"
"250","","67.44186046511628","67.44186046511628","908.6744186046511","908.6744186046511","black","no","xpyriment","legacy","legacy","0","204","NA","uniform","NA","NA","NA","0","undefined","0","0","85","85","85","0","85","85","85","NA","0","85","NA","NA","0","85","NA","85","0","85","NA","NA","NA","85","0","0","NA","NA","85","85","85","85","85","86","z","Wed Nov  8 15:06:48 2023","Executes Python code","yes","m21-ba-lexicalDecision.osexp","C:\Users\ekealey\Desktop","no","mono","no","18","no","white","no","yes","1080","legacy","85","85","C:/Users/ekealey/Desktop/subject-228.csv","xpyriment","Lentiform Loewenfeld","3.3.11","0","/","space","NA","NA","NA","space","/","816","7747","NA","NA","NA","45295","816","2","legacy","1024","2","48000","-16","AB_m21","228","even","NW_L_COMP","MUDLA","1785","439111","437127","429479","47238","382945","NA","NA","NA","NA","437627","NA","NA","NA","436627","NA","436595","1942","439361","NA","NA","NA","437668","1785","1928","NA","NA","438485","438508","436595","437627","437648","morph21_Oliver/Morris","58","78146","86","yes","1920","12"
"250","","67.816091954023","67.816091954023","908.7701149425287","908.7701149425287","black","no","xpyriment","legacy","legacy","0","204","NA","uniform","NA","NA","NA","1","undefined","1","0","86","86","86","0","86","86","86","NA","0","86","NA","NA","0","86","NA","86","0","86","NA","NA","NA","86","0","0","NA","NA","86","86","86","86","86","87","z","Wed Nov  8 15:06:48 2023","Executes Python code","yes","m21-ba-lexicalDecision.osexp","C:\Users\ekealey\Desktop","no","mono","no","18","no","white","no","yes","1080","legacy","86","86","C:/Users/ekealey/Desktop/subject-228.csv","xpyriment","Lentiform Loewenfeld","3.3.11","0","z","space","NA","NA","NA","space","z","917","7747","NA","NA","NA","45295","917","2","legacy","1024","2","48000","-16","AB_m21","228","even","NW_L_COMP","FREENELS","1785","444538","440945","443034","47238","382945","NA","NA","NA","NA","441445","NA","NA","NA","440444","NA","440417","1942","444788","NA","NA","NA","441487","1785","1928","NA","NA","442405","442430","440417","441445","441466","morph21_Oliver/Morris","59","79063","87","yes","1920","15"
"250","","67.04545454545455","67.04545454545455","911.8295454545455","911.8295454545455","black","no","xpyriment","legacy","legacy","0","205","NA","uniform","NA","NA","NA","0","undefined","0","0","87","87","87","0","87","87","87","NA","0","87","NA","NA","0","87","NA","87","0","87","NA","NA","NA","87","0","0","NA","NA","87","87","87","87","87","88","z","Wed Nov  8 15:06:48 2023","Executes Python code","yes","m21-ba-lexicalDecision.osexp","C:\Users\ekealey\Desktop","no","mono","no","18","no","white","no","yes","1080","legacy","87","87","C:/Users/ekealey/Desktop/subject-228.csv","xpyriment","Lentiform Loewenfeld","3.3.11","0","/","space","NA","NA","NA","space","/","1178","7747","NA","NA","NA","45295","1178","2","legacy","1024","2","48000","-16","AB_m21","228","even","NW_S_SIMP","ZOOMFUL","1785","448744","446396","443034","47238","382945","NA","NA","NA","NA","446896","NA","NA","NA","445895","NA","445866","1942","448994","NA","NA","NA","446937","1785","1928","NA","NA","448116","448141","445866","446896","446917","morph21_Oliver/Morris","59","80241","88","yes","1920","19"
"250","","67.41573033707866","67.41573033707866","914.1123595505618","914.1123595505618","black","no","xpyriment","legacy","legacy","0","201","NA","uniform","NA","NA","NA","1","undefined","1","0","88","88","88","0","88","88","88","NA","0","88","NA","NA","0","88","NA","88","0","88","NA","NA","NA","88","0","0","NA","NA","88","88","88","88","88","89","/","Wed Nov  8 15:06:48 2023","Executes Python code","yes","m21-ba-lexicalDecision.osexp","C:\Users\ekealey\Desktop","no","mono","no","18","no","white","no","yes","1080","legacy","88","88","C:/Users/ekealey/Desktop/subject-228.csv","xpyriment","Lentiform Loewenfeld","3.3.11","0","/","space","NA","NA","NA","space","/","1115","7747","NA","NA","NA","45295","1115","2","legacy","1024","2","48000","-16","AB_m21","228","even","CW_S","PEAKING","1785","452880","450595","443034","47238","382945","NA","NA","NA","NA","451096","NA","NA","NA","450095","NA","450064","1942","453130","NA","NA","NA","451137","1785","1928","NA","NA","452253","452277","450064","451096","451116","morph21_Oliver/Morris","60","81356","89","yes","1920","28"
"300","","67.77777777777777","67.77777777777777","913.9888888888889","913.9888888888889","black","no","xpyriment","legacy","legacy","0","206","NA","uniform","NA","NA","NA","1","undefined","1","0","89","89","89","0","89","89","89","NA","0","89","NA","NA","0","89","NA","89","0","89","NA","NA","NA","89","0","0","NA","NA","89","89","89","89","89","90","z","Wed Nov  8 15:06:48 2023","Executes Python code","yes","m21-ba-lexicalDecision.osexp","C:\Users\ekealey\Desktop","no","mono","no","18","no","white","no","yes","1080","legacy","89","89","C:/Users/ekealey/Desktop/subject-228.csv","xpyriment","Lentiform Loewenfeld","3.3.11","0","z","space","NA","NA","NA","space","z","903","7747","NA","NA","NA","45295","903","2","legacy","1024","2","48000","-16","AB_m21","228","even","NW_L_SIMP","PRAYANCE","1785","458300","454720","456793","47238","382945","NA","NA","NA","NA","455220","NA","NA","NA","454220","NA","454192","1942","458600","NA","NA","NA","455261","1785","1928","NA","NA","456165","456189","454192","455220","455241","morph21_Oliver/Morris","61","82259","90","yes","1920","1"
"400","","67.03296703296704","67.03296703296704","917.1318681318681","917.1318681318681","black","no","xpyriment","legacy","legacy","0","205","NA","uniform","NA","NA","NA","0","undefined","0","0","90","90","90","0","90","90","90","NA","0","90","NA","NA","0","90","NA","90","0","90","NA","NA","NA","90","0","0","NA","NA","90","90","90","90","90","91","z","Wed Nov  8 15:06:48 2023","Executes Python code","yes","m21-ba-lexicalDecision.osexp","C:\Users\ekealey\Desktop","no","mono","no","18","no","white","no","yes","1080","legacy","90","90","C:/Users/ekealey/Desktop/subject-228.csv","xpyriment","Lentiform Loewenfeld","3.3.11","0","None","space","NA","NA","NA","space","None","1200","7747","NA","NA","NA","45295","1200","2","legacy","1024","2","48000","-16","AB_m21","228","even","NW_S_SIMP","RAMPIZE","1785","462562","460192","456793","47238","382945","NA","NA","NA","NA","460693","NA","NA","NA","459692","NA","459663","1942","462962","NA","NA","NA","460734","1785","1928","NA","NA","461934","461958","459662","460693","460714","morph21_Oliver/Morris","61","83459","91","yes","1920","6"
