"ITI","_prepare","acc","accuracy","average_response_time","avg_rt","background","bidi","canvas_backend","clock_backend","color_backend","compensation","cond_trig","condtrigtime","coordinates","coroutines_cycles","coroutines_duration","coroutines_mean_cycle_duration","correct","correct_instructions_1","correct_new_keyboard_response_1","count_AB_m21","count_ITI","count_blank_screen","count_blink_screen","count_block1","count_break1","count_break2","count_break3_1","count_canvas","count_close_port","count_cond_trigger","count_correct_trigger","count_def_chain","count_end_screen","count_fixation_1","count_getting_started","count_inc_counter","count_instructions_1","count_logger","count_logscript","count_new_inline_script","count_new_inline_script_2","count_new_keyboard_response_1","count_open_port","count_reset_counter_prep","count_reset_counter_run","count_reset_counter_run_1","count_response_trigger_trial","count_responsescreen","count_sequence","count_target_present","count_word_trigger","counter","cresp","datetime","description","disable_garbage_collection","experiment_file","experiment_path","font_bold","font_family","font_italic","font_size","font_underline","foreground","form_clicks","fullscreen","height","keyboard_backend","live_row","live_row_block1","logfile","mouse_backend","opensesame_codename","opensesame_version","repeat_cycle","response","response_break1","response_break2","response_break3_1","response_end_screen","response_instructions_1","response_new_keyboard_response_1","response_time","response_time_break1","response_time_break2","response_time_break3_1","response_time_end_screen","response_time_instructions_1","response_time_new_keyboard_response_1","round_decimals","sampler_backend","sound_buf_size","sound_channels","sound_freq","sound_sample_size","start","subject_nr","subject_parity","targ_type","target","time_AB_m21","time_ITI","time_blank_screen","time_blink_screen","time_block1","time_break1","time_break2","time_break3_1","time_canvas","time_close_port","time_cond_trigger","time_correct_trigger","time_def_chain","time_end_screen","time_fixation_1","time_getting_started","time_inc_counter","time_instructions_1","time_logger","time_logscript","time_new_inline_script","time_new_inline_script_2","time_new_keyboard_response_1","time_open_port","time_reset_counter_prep","time_reset_counter_run","time_reset_counter_run_1","time_response_trigger_trial","time_responsescreen","time_sequence","time_target_present","time_word_trigger","title","total_correct","total_response_time","total_responses","uniform_coordinates","width","word_trig"
"350","","0","0","1200","1200","black","no","xpyriment","legacy","legacy","0","201","NA","uniform","NA","NA","NA","0","undefined","0","0","0","0","0","0","0","0","0","NA","0","0","NA","NA","0","0","NA","0","0","0","NA","NA","NA","0","0","0","NA","NA","0","0","0","0","0","1","/","Tue Jun 27 13:21:10 2023","Executes Python code","yes","m21-ba-lexicalDecision.osexp","C:\Users\emoore8\Desktop\m21_vsl-main","no","mono","no","18","no","white","no","yes","1080","legacy","0","0","C:/Users/emoore8/Desktop/m21_vsl-main/subject-210.csv","xpyriment","Lentiform Loewenfeld","3.3.11","0","None","NA","NA","NA","NA","space","None","1200","NA","NA","NA","NA","117780","1200","2","legacy","1024","2","48000","-16","AB_m21","210","even","CW_S","CHILLY","1613","123672","121303","NA","119559","NA","NA","NA","NA","NA","121803","NA","NA","NA","120802","NA","120770","1778","124022","NA","NA","NA","121844","1613","1765","NA","NA","123044","123067","120770","121803","121824","morph21_Oliver/Morris","0","1200","1","yes","1920","48"
"300","","0","0","1200","1200","black","no","xpyriment","legacy","legacy","0","206","NA","uniform","NA","NA","NA","0","undefined","0","0","1","1","1","0","1","1","1","NA","0","1","NA","NA","0","1","NA","1","0","1","NA","NA","NA","1","0","0","NA","NA","1","1","1","1","1","2","z","Tue Jun 27 13:21:10 2023","Executes Python code","yes","m21-ba-lexicalDecision.osexp","C:\Users\emoore8\Desktop\m21_vsl-main","no","mono","no","18","no","white","no","yes","1080","legacy","1","1","C:/Users/emoore8/Desktop/m21_vsl-main/subject-210.csv","xpyriment","Lentiform Loewenfeld","3.3.11","0","None","NA","NA","NA","NA","space","None","1200","NA","NA","NA","NA","117780","1200","2","legacy","1024","2","48000","-16","AB_m21","210","even","NW_L_SIMP","TAXFUL","1613","127926","125559","NA","119559","NA","NA","NA","NA","NA","126058","NA","NA","NA","125059","NA","125030","1778","128226","NA","NA","NA","126099","1613","1765","NA","NA","127299","127322","125030","126058","126079","morph21_Oliver/Morris","0","2400","2","yes","1920","6"
"400","","33.333333333333336","33.333333333333336","1050.3333333333333","1050.3333333333333","black","no","xpyriment","legacy","legacy","0","201","NA","uniform","NA","NA","NA","1","undefined","1","0","2","2","2","0","2","2","2","NA","0","2","NA","NA","0","2","NA","2","0","2","NA","NA","NA","2","0","0","NA","NA","2","2","2","2","2","3","/","Tue Jun 27 13:21:10 2023","Executes Python code","yes","m21-ba-lexicalDecision.osexp","C:\Users\emoore8\Desktop\m21_vsl-main","no","mono","no","18","no","white","no","yes","1080","legacy","2","2","C:/Users/emoore8/Desktop/m21_vsl-main/subject-210.csv","xpyriment","Lentiform Loewenfeld","3.3.11","0","/","NA","NA","NA","NA","space","/","751","NA","NA","NA","NA","117780","751","2","legacy","1024","2","48000","-16","AB_m21","210","even","CW_S","AVOIDABLE","1613","133169","129747","131666","119559","NA","NA","NA","NA","NA","130248","NA","NA","NA","129246","NA","129220","1778","133569","NA","NA","NA","130288","1613","1765","NA","NA","131040","131063","129220","130248","130268","morph21_Oliver/Morris","1","3151","3","yes","1920","2"
"300","","50","50","970.75","970.75","black","no","xpyriment","legacy","legacy","0","202","NA","uniform","NA","NA","NA","1","undefined","1","0","3","3","3","0","3","3","3","NA","0","3","NA","NA","0","3","NA","3","0","3","NA","NA","NA","3","0","0","NA","NA","3","3","3","3","3","4","/","Tue Jun 27 13:21:10 2023","Executes Python code","yes","m21-ba-lexicalDecision.osexp","C:\Users\emoore8\Desktop\m21_vsl-main","no","mono","no","18","no","white","no","yes","1080","legacy","3","3","C:/Users/emoore8/Desktop/m21_vsl-main/subject-210.csv","xpyriment","Lentiform Loewenfeld","3.3.11","0","/","NA","NA","NA","NA","space","/","732","NA","NA","NA","NA","117780","732","2","legacy","1024","2","48000","-16","AB_m21","210","even","CW_L","DOUBTFUL","1613","136970","135070","131666","119559","NA","NA","NA","NA","NA","135570","NA","NA","NA","134570","NA","134547","1778","137270","NA","NA","NA","135610","1613","1765","NA","NA","136343","136366","134547","135570","135590","morph21_Oliver/Morris","2","3883","4","yes","1920","21"
"300","","40","40","1016.6","1016.6","black","no","xpyriment","legacy","legacy","0","206","NA","uniform","NA","NA","NA","0","undefined","0","0","4","4","4","0","4","4","4","NA","0","4","NA","NA","0","4","NA","4","0","4","NA","NA","NA","4","0","0","NA","NA","4","4","4","4","4","5","z","Tue Jun 27 13:21:10 2023","Executes Python code","yes","m21-ba-lexicalDecision.osexp","C:\Users\emoore8\Desktop\m21_vsl-main","no","mono","no","18","no","white","no","yes","1080","legacy","4","4","C:/Users/emoore8/Desktop/m21_vsl-main/subject-210.csv","xpyriment","Lentiform Loewenfeld","3.3.11","0","None","NA","NA","NA","NA","space","None","1200","NA","NA","NA","NA","117780","1200","2","legacy","1024","2","48000","-16","AB_m21","210","even","NW_L_SIMP","PRAYANCE","1613","141135","138769","131666","119559","NA","NA","NA","NA","NA","139269","NA","NA","NA","138269","NA","138245","1778","141435","NA","NA","NA","139309","1613","1765","NA","NA","140509","140532","138245","139269","139289","morph21_Oliver/Morris","2","5083","5","yes","1920","1"
"400","","50","50","983","983","black","no","xpyriment","legacy","legacy","0","202","NA","uniform","NA","NA","NA","1","undefined","1","0","5","5","5","0","5","5","5","NA","0","5","NA","NA","0","5","NA","5","0","5","NA","NA","NA","5","0","0","NA","NA","5","5","5","5","5","6","/","Tue Jun 27 13:21:10 2023","Executes Python code","yes","m21-ba-lexicalDecision.osexp","C:\Users\emoore8\Desktop\m21_vsl-main","no","mono","no","18","no","white","no","yes","1080","legacy","5","5","C:/Users/emoore8/Desktop/m21_vsl-main/subject-210.csv","xpyriment","Lentiform Loewenfeld","3.3.11","0","/","NA","NA","NA","NA","space","/","815","NA","NA","NA","NA","117780","815","2","legacy","1024","2","48000","-16","AB_m21","210","even","CW_L","WRONGLY","1613","146445","142953","144939","119559","NA","NA","NA","NA","NA","143454","NA","NA","NA","142452","NA","142425","1778","146846","NA","NA","NA","143495","1613","1765","NA","NA","144310","144334","142425","143454","143475","morph21_Oliver/Morris","3","5898","6","yes","1920","37"
"300","","42.857142857142854","42.857142857142854","1014","1014","black","no","xpyriment","legacy","legacy","0","203","NA","uniform","NA","NA","NA","0","undefined","0","0","6","6","6","0","6","6","6","NA","0","6","NA","NA","0","6","NA","6","0","6","NA","NA","NA","6","0","0","NA","NA","6","6","6","6","6","7","z","Tue Jun 27 13:21:10 2023","Executes Python code","yes","m21-ba-lexicalDecision.osexp","C:\Users\emoore8\Desktop\m21_vsl-main","no","mono","no","18","no","white","no","yes","1080","legacy","6","6","C:/Users/emoore8/Desktop/m21_vsl-main/subject-210.csv","xpyriment","Lentiform Loewenfeld","3.3.11","0","None","NA","NA","NA","NA","space","None","1200","NA","NA","NA","NA","117780","1200","2","legacy","1024","2","48000","-16","AB_m21","210","even","NW_S_COMP","CURTIDY","1613","150746","148375","144939","119559","NA","NA","NA","NA","NA","148876","NA","NA","NA","147874","NA","147849","1778","151046","NA","NA","NA","148917","1613","1765","NA","NA","150117","150143","147849","148876","148897","morph21_Oliver/Morris","3","7098","7","yes","1920","11"
"400","","37.5","37.5","1037.25","1037.25","black","no","xpyriment","legacy","legacy","0","208","NA","uniform","NA","NA","NA","0","undefined","0","0","7","7","7","0","7","7","7","NA","0","7","NA","NA","0","7","NA","7","0","7","NA","NA","NA","7","0","0","NA","NA","7","7","7","7","7","8","z","Tue Jun 27 13:21:10 2023","Executes Python code","yes","m21-ba-lexicalDecision.osexp","C:\Users\emoore8\Desktop\m21_vsl-main","no","mono","no","18","no","white","no","yes","1080","legacy","7","7","C:/Users/emoore8/Desktop/m21_vsl-main/subject-210.csv","xpyriment","Lentiform Loewenfeld","3.3.11","0","None","NA","NA","NA","NA","space","None","1200","NA","NA","NA","NA","117780","1200","2","legacy","1024","2","48000","-16","AB_m21","210","even","FILL_NW","FROES","1613","154960","152591","144939","119559","NA","NA","NA","NA","NA","153091","NA","NA","NA","152091","NA","152064","1778","155360","NA","NA","NA","153132","1613","1765","NA","NA","154332","154356","152064","153091","153112","morph21_Oliver/Morris","3","8298","8","yes","1920","21"
"250","","44.44444444444444","44.44444444444444","1020.4444444444445","1020.4444444444445","black","no","xpyriment","legacy","legacy","0","207","NA","uniform","NA","NA","NA","1","undefined","1","0","8","8","8","0","8","8","8","NA","0","8","NA","NA","0","8","NA","8","0","8","NA","NA","NA","8","0","0","NA","NA","8","8","8","8","8","9","/","Tue Jun 27 13:21:10 2023","Executes Python code","yes","m21-ba-lexicalDecision.osexp","C:\Users\emoore8\Desktop\m21_vsl-main","no","mono","no","18","no","white","no","yes","1080","legacy","8","8","C:/Users/emoore8/Desktop/m21_vsl-main/subject-210.csv","xpyriment","Lentiform Loewenfeld","3.3.11","0","/","NA","NA","NA","NA","space","/","886","NA","NA","NA","NA","117780","886","2","legacy","1024","2","48000","-16","AB_m21","210","even","FILL_W","PACK","1613","160426","156867","158922","119559","NA","NA","NA","NA","NA","157367","NA","NA","NA","156367","NA","156339","1778","160676","NA","NA","NA","157408","1613","1765","NA","NA","158294","158319","156339","157367","157388","morph21_Oliver/Morris","4","9184","9","yes","1920","41"
"350","","50","50","1013.1","1013.1","black","no","xpyriment","legacy","legacy","0","201","NA","uniform","NA","NA","NA","1","undefined","1","0","9","9","9","0","9","9","9","NA","0","9","NA","NA","0","9","NA","9","0","9","NA","NA","NA","9","0","0","NA","NA","9","9","9","9","9","10","/","Tue Jun 27 13:21:10 2023","Executes Python code","yes","m21-ba-lexicalDecision.osexp","C:\Users\emoore8\Desktop\m21_vsl-main","no","mono","no","18","no","white","no","yes","1080","legacy","9","9","C:/Users/emoore8/Desktop/m21_vsl-main/subject-210.csv","xpyriment","Lentiform Loewenfeld","3.3.11","0","/","NA","NA","NA","NA","space","/","947","NA","NA","NA","NA","117780","947","2","legacy","1024","2","48000","-16","AB_m21","210","even","CW_S","LENDER","1613","164348","162231","158922","119559","NA","NA","NA","NA","NA","162731","NA","NA","NA","161731","NA","161702","1778","164698","NA","NA","NA","162772","1613","1765","NA","NA","163719","163744","161702","162731","162752","morph21_Oliver/Morris","5","10131","10","yes","1920","11"
"300","","45.45454545454545","45.45454545454545","1030.090909090909","1030.090909090909","black","no","xpyriment","legacy","legacy","0","205","NA","uniform","NA","NA","NA","0","undefined","0","0","10","10","10","0","10","10","10","NA","0","10","NA","NA","0","10","NA","10","0","10","NA","NA","NA","10","0","0","NA","NA","10","10","10","10","10","11","z","Tue Jun 27 13:21:10 2023","Executes Python code","yes","m21-ba-lexicalDecision.osexp","C:\Users\emoore8\Desktop\m21_vsl-main","no","mono","no","18","no","white","no","yes","1080","legacy","10","10","C:/Users/emoore8/Desktop/m21_vsl-main/subject-210.csv","xpyriment","Lentiform Loewenfeld","3.3.11","0","None","NA","NA","NA","NA","space","None","1200","NA","NA","NA","NA","117780","1200","2","legacy","1024","2","48000","-16","AB_m21","210","even","NW_S_SIMP","NEXTNESS","1613","168564","166198","158922","119559","NA","NA","NA","NA","NA","166698","NA","NA","NA","165697","NA","165674","1778","168865","NA","NA","NA","166738","1613","1765","NA","NA","167938","167961","165674","166698","166718","morph21_Oliver/Morris","5","11331","11","yes","1920","9"
"200","","41.666666666666664","41.666666666666664","1034.6666666666667","1034.6666666666667","black","no","xpyriment","legacy","legacy","0","205","NA","uniform","NA","NA","NA","0","undefined","0","0","11","11","11","0","11","11","11","NA","0","11","NA","NA","0","11","NA","11","0","11","NA","NA","NA","11","0","0","NA","NA","11","11","11","11","11","12","z","Tue Jun 27 13:21:10 2023","Executes Python code","yes","m21-ba-lexicalDecision.osexp","C:\Users\emoore8\Desktop\m21_vsl-main","no","mono","no","18","no","white","no","yes","1080","legacy","11","11","C:/Users/emoore8/Desktop/m21_vsl-main/subject-210.csv","xpyriment","Lentiform Loewenfeld","3.3.11","0","/","NA","NA","NA","NA","space","/","1085","NA","NA","NA","NA","117780","1085","2","legacy","1024","2","48000","-16","AB_m21","210","even","NW_S_SIMP","GUMFUL","1613","174124","170365","172619","119559","NA","NA","NA","NA","NA","170865","NA","NA","NA","169865","NA","169841","1778","174324","NA","NA","NA","170905","1613","1765","NA","NA","171990","172016","169841","170865","170885","morph21_Oliver/Morris","5","12416","12","yes","1920","2"
"200","","46.15384615384615","46.15384615384615","1000","1000","black","no","xpyriment","legacy","legacy","0","207","NA","uniform","NA","NA","NA","1","undefined","1","0","12","12","12","0","12","12","12","NA","0","12","NA","NA","0","12","NA","12","0","12","NA","NA","NA","12","0","0","NA","NA","12","12","12","12","12","13","/","Tue Jun 27 13:21:10 2023","Executes Python code","yes","m21-ba-lexicalDecision.osexp","C:\Users\emoore8\Desktop\m21_vsl-main","no","mono","no","18","no","white","no","yes","1080","legacy","12","12","C:/Users/emoore8/Desktop/m21_vsl-main/subject-210.csv","xpyriment","Lentiform Loewenfeld","3.3.11","0","/","NA","NA","NA","NA","space","/","584","NA","NA","NA","NA","117780","584","2","legacy","1024","2","48000","-16","AB_m21","210","even","FILL_W","WRECK","1613","177585","175833","172619","119559","NA","NA","NA","NA","NA","176334","NA","NA","NA","175333","NA","175306","1778","177785","NA","NA","NA","176374","1613","1765","NA","NA","176958","176982","175306","176334","176354","morph21_Oliver/Morris","6","13000","13","yes","1920","13"
"400","","50","50","987.8571428571429","987.8571428571429","black","no","xpyriment","legacy","legacy","0","202","NA","uniform","NA","NA","NA","1","undefined","1","0","13","13","13","0","13","13","13","NA","0","13","NA","NA","0","13","NA","13","0","13","NA","NA","NA","13","0","0","NA","NA","13","13","13","13","13","14","/","Tue Jun 27 13:21:10 2023","Executes Python code","yes","m21-ba-lexicalDecision.osexp","C:\Users\emoore8\Desktop\m21_vsl-main","no","mono","no","18","no","white","no","yes","1080","legacy","13","13","C:/Users/emoore8/Desktop/m21_vsl-main/subject-210.csv","xpyriment","Lentiform Loewenfeld","3.3.11","0","/","NA","NA","NA","NA","space","/","830","NA","NA","NA","NA","117780","830","2","legacy","1024","2","48000","-16","AB_m21","210","even","CW_L","COOLING","1613","181291","179291","172619","119559","NA","NA","NA","NA","NA","179792","NA","NA","NA","178790","NA","178764","1778","181691","NA","NA","NA","179832","1613","1765","NA","NA","180663","180686","178764","179791","179812","morph21_Oliver/Morris","7","13830","14","yes","1920","24"
"250","","53.333333333333336","53.333333333333336","974.2","974.2","black","no","xpyriment","legacy","legacy","0","207","NA","uniform","NA","NA","NA","1","undefined","1","0","14","14","14","0","14","14","14","NA","0","14","NA","NA","0","14","NA","14","0","14","NA","NA","NA","14","0","0","NA","NA","14","14","14","14","14","15","/","Tue Jun 27 13:21:10 2023","Executes Python code","yes","m21-ba-lexicalDecision.osexp","C:\Users\emoore8\Desktop\m21_vsl-main","no","mono","no","18","no","white","no","yes","1080","legacy","14","14","C:/Users/emoore8/Desktop/m21_vsl-main/subject-210.csv","xpyriment","Lentiform Loewenfeld","3.3.11","0","/","NA","NA","NA","NA","space","/","783","NA","NA","NA","NA","117780","783","2","legacy","1024","2","48000","-16","AB_m21","210","even","FILL_W","SPLICE","1613","186657","183201","185154","119559","NA","NA","NA","NA","NA","183702","NA","NA","NA","182701","NA","182678","1778","186907","NA","NA","NA","183743","1613","1765","NA","NA","184526","184550","182678","183702","183723","morph21_Oliver/Morris","8","14613","15","yes","1920","22"
"200","","56.25","56.25","957.875","957.875","black","no","xpyriment","legacy","legacy","0","207","NA","uniform","NA","NA","NA","1","undefined","1","0","15","15","15","0","15","15","15","NA","0","15","NA","NA","0","15","NA","15","0","15","NA","NA","NA","15","0","0","NA","NA","15","15","15","15","15","16","/","Tue Jun 27 13:21:10 2023","Executes Python code","yes","m21-ba-lexicalDecision.osexp","C:\Users\emoore8\Desktop\m21_vsl-main","no","mono","no","18","no","white","no","yes","1080","legacy","15","15","C:/Users/emoore8/Desktop/m21_vsl-main/subject-210.csv","xpyriment","Lentiform Loewenfeld","3.3.11","0","/","NA","NA","NA","NA","space","/","713","NA","NA","NA","NA","117780","713","2","legacy","1024","2","48000","-16","AB_m21","210","even","FILL_W","OLD","1613","190298","188417","185154","119559","NA","NA","NA","NA","NA","188918","NA","NA","NA","187917","NA","187890","1778","190498","NA","NA","NA","188958","1613","1765","NA","NA","189671","189695","187890","188918","188938","morph21_Oliver/Morris","9","15326","16","yes","1920","44"
"400","","52.94117647058823","52.94117647058823","972.1176470588235","972.1176470588235","black","no","xpyriment","legacy","legacy","0","205","NA","uniform","NA","NA","NA","0","undefined","0","0","16","16","16","0","16","16","16","NA","0","16","NA","NA","0","16","NA","16","0","16","NA","NA","NA","16","0","0","NA","NA","16","16","16","16","16","17","z","Tue Jun 27 13:21:10 2023","Executes Python code","yes","m21-ba-lexicalDecision.osexp","C:\Users\emoore8\Desktop\m21_vsl-main","no","mono","no","18","no","white","no","yes","1080","legacy","16","16","C:/Users/emoore8/Desktop/m21_vsl-main/subject-210.csv","xpyriment","Lentiform Loewenfeld","3.3.11","0","None","NA","NA","NA","NA","space","None","1200","NA","NA","NA","NA","117780","1200","2","legacy","1024","2","48000","-16","AB_m21","210","even","NW_S_SIMP","RAMPIZE","1613","194370","192002","185154","119559","NA","NA","NA","NA","NA","192502","NA","NA","NA","191502","NA","191478","1778","194770","NA","NA","NA","192543","1613","1765","NA","NA","193743","193767","191478","192502","192523","morph21_Oliver/Morris","9","16526","17","yes","1920","6"
"250","","55.55555555555556","55.55555555555556","957.9444444444445","957.9444444444445","black","no","xpyriment","legacy","legacy","0","201","NA","uniform","NA","NA","NA","1","undefined","1","0","17","17","17","0","17","17","17","NA","0","17","NA","NA","0","17","NA","17","0","17","NA","NA","NA","17","0","0","NA","NA","17","17","17","17","17","18","/","Tue Jun 27 13:21:10 2023","Executes Python code","yes","m21-ba-lexicalDecision.osexp","C:\Users\emoore8\Desktop\m21_vsl-main","no","mono","no","18","no","white","no","yes","1080","legacy","17","17","C:/Users/emoore8/Desktop/m21_vsl-main/subject-210.csv","xpyriment","Lentiform Loewenfeld","3.3.11","0","/","NA","NA","NA","NA","space","/","717","NA","NA","NA","NA","117780","717","2","legacy","1024","2","48000","-16","AB_m21","210","even","CW_S","SEEKER","1613","199652","196261","198148","119559","NA","NA","NA","NA","NA","196761","NA","NA","NA","195760","NA","195734","1778","199902","NA","NA","NA","196801","1613","1765","NA","NA","197519","197544","195734","196761","196781","morph21_Oliver/Morris","10","17243","18","yes","1920","16"
"300","","57.89473684210526","57.89473684210526","941.3684210526316","941.3684210526316","black","no","xpyriment","legacy","legacy","0","201","NA","uniform","NA","NA","NA","1","undefined","1","0","18","18","18","0","18","18","18","NA","0","18","NA","NA","0","18","NA","18","0","18","NA","NA","NA","18","0","0","NA","NA","18","18","18","18","18","19","/","Tue Jun 27 13:21:10 2023","Executes Python code","yes","m21-ba-lexicalDecision.osexp","C:\Users\emoore8\Desktop\m21_vsl-main","no","mono","no","18","no","white","no","yes","1080","legacy","18","18","C:/Users/emoore8/Desktop/m21_vsl-main/subject-210.csv","xpyriment","Lentiform Loewenfeld","3.3.11","0","/","NA","NA","NA","NA","space","/","643","NA","NA","NA","NA","117780","643","2","legacy","1024","2","48000","-16","AB_m21","210","even","CW_S","ATTACKER","1613","203219","201407","198148","119559","NA","NA","NA","NA","NA","201908","NA","NA","NA","200906","NA","200883","1778","203519","NA","NA","NA","201948","1613","1765","NA","NA","202591","202616","200883","201908","201928","morph21_Oliver/Morris","11","17886","19","yes","1920","20"
"400","","55","55","954.3","954.3","black","no","xpyriment","legacy","legacy","0","204","NA","uniform","NA","NA","NA","0","undefined","0","0","19","19","19","0","19","19","19","NA","0","19","NA","NA","0","19","NA","19","0","19","NA","NA","NA","19","0","0","NA","NA","19","19","19","19","19","20","z","Tue Jun 27 13:21:10 2023","Executes Python code","yes","m21-ba-lexicalDecision.osexp","C:\Users\emoore8\Desktop\m21_vsl-main","no","mono","no","18","no","white","no","yes","1080","legacy","19","19","C:/Users/emoore8/Desktop/m21_vsl-main/subject-210.csv","xpyriment","Lentiform Loewenfeld","3.3.11","0","None","NA","NA","NA","NA","space","None","1200","NA","NA","NA","NA","117780","1200","2","legacy","1024","2","48000","-16","AB_m21","210","even","NW_L_COMP","FLITENGE","1613","207424","205056","198148","119559","NA","NA","NA","NA","NA","205556","NA","NA","NA","204555","NA","204529","1778","207824","NA","NA","NA","205598","1613","1765","NA","NA","206798","206821","204529","205556","205577","morph21_Oliver/Morris","11","19086","20","yes","1920","3"
"400","","52.38095238095238","52.38095238095238","966","966","black","no","xpyriment","legacy","legacy","0","208","NA","uniform","NA","NA","NA","0","undefined","0","0","20","20","20","0","20","20","20","NA","0","20","NA","NA","0","20","NA","20","0","20","NA","NA","NA","20","0","0","NA","NA","20","20","20","20","20","21","z","Tue Jun 27 13:21:10 2023","Executes Python code","yes","m21-ba-lexicalDecision.osexp","C:\Users\emoore8\Desktop\m21_vsl-main","no","mono","no","18","no","white","no","yes","1080","legacy","20","20","C:/Users/emoore8/Desktop/m21_vsl-main/subject-210.csv","xpyriment","Lentiform Loewenfeld","3.3.11","0","None","NA","NA","NA","NA","space","None","1200","NA","NA","NA","NA","117780","1200","2","legacy","1024","2","48000","-16","AB_m21","210","even","FILL_NW","BALFS","1613","213199","209325","211694","119559","NA","NA","NA","NA","NA","209825","NA","NA","NA","208825","NA","208798","1778","213599","NA","NA","NA","209866","1613","1765","NA","NA","211066","211091","208798","209825","209846","morph21_Oliver/Morris","11","20286","21","yes","1920","2"
"300","","50","50","976.6363636363636","976.6363636363636","black","no","xpyriment","legacy","legacy","0","205","NA","uniform","NA","NA","NA","0","undefined","0","0","21","21","21","0","21","21","21","NA","0","21","NA","NA","0","21","NA","21","0","21","NA","NA","NA","21","0","0","NA","NA","21","21","21","21","21","22","z","Tue Jun 27 13:21:10 2023","Executes Python code","yes","m21-ba-lexicalDecision.osexp","C:\Users\emoore8\Desktop\m21_vsl-main","no","mono","no","18","no","white","no","yes","1080","legacy","21","21","C:/Users/emoore8/Desktop/m21_vsl-main/subject-210.csv","xpyriment","Lentiform Loewenfeld","3.3.11","0","None","NA","NA","NA","NA","space","None","1200","NA","NA","NA","NA","117780","1200","2","legacy","1024","2","48000","-16","AB_m21","210","even","NW_S_SIMP","WARNORY","1613","217483","215114","211694","119559","NA","NA","NA","NA","NA","215614","NA","NA","NA","214613","NA","214588","1778","217783","NA","NA","NA","215655","1613","1765","NA","NA","216855","216879","214588","215614","215635","morph21_Oliver/Morris","11","21486","22","yes","1920","12"
"400","","47.82608695652174","47.82608695652174","986.3478260869565","986.3478260869565","black","no","xpyriment","legacy","legacy","0","208","NA","uniform","NA","NA","NA","0","undefined","0","0","22","22","22","0","22","22","22","NA","0","22","NA","NA","0","22","NA","22","0","22","NA","NA","NA","22","0","0","NA","NA","22","22","22","22","22","23","z","Tue Jun 27 13:21:10 2023","Executes Python code","yes","m21-ba-lexicalDecision.osexp","C:\Users\emoore8\Desktop\m21_vsl-main","no","mono","no","18","no","white","no","yes","1080","legacy","22","22","C:/Users/emoore8/Desktop/m21_vsl-main/subject-210.csv","xpyriment","Lentiform Loewenfeld","3.3.11","0","None","NA","NA","NA","NA","space","None","1200","NA","NA","NA","NA","117780","1200","2","legacy","1024","2","48000","-16","AB_m21","210","even","FILL_NW","CORG","1613","221656","219289","211694","119559","NA","NA","NA","NA","NA","219789","NA","NA","NA","218788","NA","218762","1778","222057","NA","NA","NA","219830","1613","1765","NA","NA","221030","221053","218762","219789","219810","morph21_Oliver/Morris","11","22686","23","yes","1920","7"
"350","","45.833333333333336","45.833333333333336","995.25","995.25","black","no","xpyriment","legacy","legacy","0","206","NA","uniform","NA","NA","NA","0","undefined","0","0","23","23","23","0","23","23","23","NA","0","23","NA","NA","0","23","NA","23","0","23","NA","NA","NA","23","0","0","NA","NA","23","23","23","23","23","24","z","Tue Jun 27 13:21:10 2023","Executes Python code","yes","m21-ba-lexicalDecision.osexp","C:\Users\emoore8\Desktop\m21_vsl-main","no","mono","no","18","no","white","no","yes","1080","legacy","23","23","C:/Users/emoore8/Desktop/m21_vsl-main/subject-210.csv","xpyriment","Lentiform Loewenfeld","3.3.11","0","None","NA","NA","NA","NA","space","None","1200","NA","NA","NA","NA","117780","1200","2","legacy","1024","2","48000","-16","AB_m21","210","even","NW_L_SIMP","WIGISH","1613","227439","223566","225934","119559","NA","NA","NA","NA","NA","224066","NA","NA","NA","223066","NA","223042","1778","227789","NA","NA","NA","224107","1613","1765","NA","NA","225307","225330","223042","224066","224087","morph21_Oliver/Morris","11","23886","24","yes","1920","9"
"350","","48","48","996.52","996.52","black","no","xpyriment","legacy","legacy","0","202","NA","uniform","NA","NA","NA","1","undefined","1","0","24","24","24","0","24","24","24","NA","0","24","NA","NA","0","24","NA","24","0","24","NA","NA","NA","24","0","0","NA","NA","24","24","24","24","24","25","/","Tue Jun 27 13:21:10 2023","Executes Python code","yes","m21-ba-lexicalDecision.osexp","C:\Users\emoore8\Desktop\m21_vsl-main","no","mono","no","18","no","white","no","yes","1080","legacy","24","24","C:/Users/emoore8/Desktop/m21_vsl-main/subject-210.csv","xpyriment","Lentiform Loewenfeld","3.3.11","0","/","NA","NA","NA","NA","space","/","1027","NA","NA","NA","NA","117780","1027","2","legacy","1024","2","48000","-16","AB_m21","210","even","CW_L","JUMPING","1613","231497","229302","225934","119559","NA","NA","NA","NA","NA","229802","NA","NA","NA","228802","NA","228779","1778","231847","NA","NA","NA","229843","1613","1765","NA","NA","230871","230894","228779","229802","229823","morph21_Oliver/Morris","12","24913","25","yes","1920","30"
"250","","50","50","981.3846153846154","981.3846153846154","black","no","xpyriment","legacy","legacy","0","202","NA","uniform","NA","NA","NA","1","undefined","1","0","25","25","25","0","25","25","25","NA","0","25","NA","NA","0","25","NA","25","0","25","NA","NA","NA","25","0","0","NA","NA","25","25","25","25","25","26","/","Tue Jun 27 13:21:10 2023","Executes Python code","yes","m21-ba-lexicalDecision.osexp","C:\Users\emoore8\Desktop\m21_vsl-main","no","mono","no","18","no","white","no","yes","1080","legacy","25","25","C:/Users/emoore8/Desktop/m21_vsl-main/subject-210.csv","xpyriment","Lentiform Loewenfeld","3.3.11","0","/","NA","NA","NA","NA","space","/","603","NA","NA","NA","NA","117780","603","2","legacy","1024","2","48000","-16","AB_m21","210","even","CW_L","STRIKER","1613","235139","233366","225934","119559","NA","NA","NA","NA","NA","233866","NA","NA","NA","232866","NA","232839","1778","235389","NA","NA","NA","233907","1613","1765","NA","NA","234511","234534","232839","233866","233887","morph21_Oliver/Morris","13","25516","26","yes","1920","17"
"350","","48.148148148148145","48.148148148148145","989.4814814814815","989.4814814814815","black","no","xpyriment","legacy","legacy","0","202","NA","uniform","NA","NA","NA","0","undefined","0","0","26","26","26","0","26","26","26","NA","0","26","NA","NA","0","26","NA","26","0","26","NA","NA","NA","26","0","0","NA","NA","26","26","26","26","26","27","/","Tue Jun 27 13:21:10 2023","Executes Python code","yes","m21-ba-lexicalDecision.osexp","C:\Users\emoore8\Desktop\m21_vsl-main","no","mono","no","18","no","white","no","yes","1080","legacy","26","26","C:/Users/emoore8/Desktop/m21_vsl-main/subject-210.csv","xpyriment","Lentiform Loewenfeld","3.3.11","0","None","NA","NA","NA","NA","space","None","1200","NA","NA","NA","NA","117780","1200","2","legacy","1024","2","48000","-16","AB_m21","210","even","CW_L","PAINTER","1613","240768","236897","239263","119559","NA","NA","NA","NA","NA","237397","NA","NA","NA","236396","NA","236370","1778","241118","NA","NA","NA","237437","1613","1765","NA","NA","238637","238660","236370","237397","237417","morph21_Oliver/Morris","13","26716","27","yes","1920","18"
"300","","50","50","988.3928571428571","988.3928571428571","black","no","xpyriment","legacy","legacy","0","202","NA","uniform","NA","NA","NA","1","undefined","1","0","27","27","27","0","27","27","27","NA","0","27","NA","NA","0","27","NA","27","0","27","NA","NA","NA","27","0","0","NA","NA","27","27","27","27","27","28","/","Tue Jun 27 13:21:10 2023","Executes Python code","yes","m21-ba-lexicalDecision.osexp","C:\Users\emoore8\Desktop\m21_vsl-main","no","mono","no","18","no","white","no","yes","1080","legacy","27","27","C:/Users/emoore8/Desktop/m21_vsl-main/subject-210.csv","xpyriment","Lentiform Loewenfeld","3.3.11","0","/","NA","NA","NA","NA","space","/","959","NA","NA","NA","NA","117780","959","2","legacy","1024","2","48000","-16","AB_m21","210","even","CW_L","PROFESSOR","1613","244763","242636","239263","119559","NA","NA","NA","NA","NA","243136","NA","NA","NA","242136","NA","242109","1778","245063","NA","NA","NA","243176","1613","1765","NA","NA","244135","244159","242109","243136","243156","morph21_Oliver/Morris","14","27675","28","yes","1920","47"
"200","","51.724137931034484","51.724137931034484","979.2758620689655","979.2758620689655","black","no","xpyriment","legacy","legacy","0","201","NA","uniform","NA","NA","NA","1","undefined","1","0","28","28","28","0","28","28","28","NA","0","28","NA","NA","0","28","NA","28","0","28","NA","NA","NA","28","0","0","NA","NA","28","28","28","28","28","29","/","Tue Jun 27 13:21:10 2023","Executes Python code","yes","m21-ba-lexicalDecision.osexp","C:\Users\emoore8\Desktop\m21_vsl-main","no","mono","no","18","no","white","no","yes","1080","legacy","28","28","C:/Users/emoore8/Desktop/m21_vsl-main/subject-210.csv","xpyriment","Lentiform Loewenfeld","3.3.11","0","/","NA","NA","NA","NA","space","/","724","NA","NA","NA","NA","117780","724","2","legacy","1024","2","48000","-16","AB_m21","210","even","CW_S","CAMPAIGNER","1613","248476","246580","239263","119559","NA","NA","NA","NA","NA","247081","NA","NA","NA","246078","NA","246054","1778","248676","NA","NA","NA","247122","1613","1765","NA","NA","247847","247870","246054","247081","247102","morph21_Oliver/Morris","15","28399","29","yes","1920","15"
"300","","53.333333333333336","53.333333333333336","969.3333333333334","969.3333333333334","black","no","xpyriment","legacy","legacy","0","207","NA","uniform","NA","NA","NA","1","undefined","1","0","29","29","29","0","29","29","29","NA","0","29","NA","NA","0","29","NA","29","0","29","NA","NA","NA","29","0","0","NA","NA","29","29","29","29","29","30","/","Tue Jun 27 13:21:10 2023","Executes Python code","yes","m21-ba-lexicalDecision.osexp","C:\Users\emoore8\Desktop\m21_vsl-main","no","mono","no","18","no","white","no","yes","1080","legacy","29","29","C:/Users/emoore8/Desktop/m21_vsl-main/subject-210.csv","xpyriment","Lentiform Loewenfeld","3.3.11","0","/","NA","NA","NA","NA","space","/","681","NA","NA","NA","NA","117780","681","2","legacy","1024","2","48000","-16","AB_m21","210","even","FILL_W","IRON","1613","253521","250168","252017","119559","NA","NA","NA","NA","NA","250668","NA","NA","NA","249668","NA","249644","1778","253821","NA","NA","NA","250709","1613","1765","NA","NA","251391","251414","249644","250668","250689","morph21_Oliver/Morris","16","29080","30","yes","1920","33"
"250","","54.83870967741935","54.83870967741935","965.1935483870968","965.1935483870968","black","no","xpyriment","legacy","legacy","0","207","NA","uniform","NA","NA","NA","1","undefined","1","0","30","30","30","0","30","30","30","NA","0","30","NA","NA","0","30","NA","30","0","30","NA","NA","NA","30","0","0","NA","NA","30","30","30","30","30","31","/","Tue Jun 27 13:21:10 2023","Executes Python code","yes","m21-ba-lexicalDecision.osexp","C:\Users\emoore8\Desktop\m21_vsl-main","no","mono","no","18","no","white","no","yes","1080","legacy","30","30","C:/Users/emoore8/Desktop/m21_vsl-main/subject-210.csv","xpyriment","Lentiform Loewenfeld","3.3.11","0","/","NA","NA","NA","NA","space","/","841","NA","NA","NA","NA","117780","841","2","legacy","1024","2","48000","-16","AB_m21","210","even","FILL_W","SMOKE","1613","257348","255336","252017","119559","NA","NA","NA","NA","NA","255837","NA","NA","NA","254834","NA","254811","1778","257598","NA","NA","NA","255878","1613","1765","NA","NA","256719","256744","254811","255837","255858","morph21_Oliver/Morris","17","29921","31","yes","1920","50"
"250","","56.25","56.25","956.1875","956.1875","black","no","xpyriment","legacy","legacy","0","207","NA","uniform","NA","NA","NA","1","undefined","1","0","31","31","31","0","31","31","31","NA","0","31","NA","NA","0","31","NA","31","0","31","NA","NA","NA","31","0","0","NA","NA","31","31","31","31","31","32","/","Tue Jun 27 13:21:10 2023","Executes Python code","yes","m21-ba-lexicalDecision.osexp","C:\Users\emoore8\Desktop\m21_vsl-main","no","mono","no","18","no","white","no","yes","1080","legacy","31","31","C:/Users/emoore8/Desktop/m21_vsl-main/subject-210.csv","xpyriment","Lentiform Loewenfeld","3.3.11","0","/","NA","NA","NA","NA","space","/","677","NA","NA","NA","NA","117780","677","2","legacy","1024","2","48000","-16","AB_m21","210","even","FILL_W","SHIP","1613","260938","259094","252017","119559","NA","NA","NA","NA","NA","259594","NA","NA","NA","258594","NA","258567","1778","261189","NA","NA","NA","259634","1613","1765","NA","NA","260312","260335","258567","259594","259614","morph21_Oliver/Morris","18","30598","32","yes","1920","37"
"400","","54.54545454545455","54.54545454545455","963.5757575757576","963.5757575757576","black","no","xpyriment","legacy","legacy","0","208","NA","uniform","NA","NA","NA","0","undefined","0","0","32","32","32","0","32","32","32","NA","0","32","NA","NA","0","32","NA","32","0","32","NA","NA","NA","32","0","0","NA","NA","32","32","32","32","32","33","z","Tue Jun 27 13:21:10 2023","Executes Python code","yes","m21-ba-lexicalDecision.osexp","C:\Users\emoore8\Desktop\m21_vsl-main","no","mono","no","18","no","white","no","yes","1080","legacy","32","32","C:/Users/emoore8/Desktop/m21_vsl-main/subject-210.csv","xpyriment","Lentiform Loewenfeld","3.3.11","0","None","NA","NA","NA","NA","space","None","1200","NA","NA","NA","NA","117780","1200","2","legacy","1024","2","48000","-16","AB_m21","210","even","FILL_NW","SOISE","1613","266564","262691","265059","119559","NA","NA","NA","NA","NA","263193","NA","NA","NA","262190","NA","262164","1778","266964","NA","NA","NA","263233","1613","1765","NA","NA","264433","264456","262164","263192","263213","morph21_Oliver/Morris","18","31798","33","yes","1920","43"
"200","","55.88235294117647","55.88235294117647","955.3823529411765","955.3823529411765","black","no","xpyriment","legacy","legacy","0","207","NA","uniform","NA","NA","NA","1","undefined","1","0","33","33","33","0","33","33","33","NA","0","33","NA","NA","0","33","NA","33","0","33","NA","NA","NA","33","0","0","NA","NA","33","33","33","33","33","34","/","Tue Jun 27 13:21:10 2023","Executes Python code","yes","m21-ba-lexicalDecision.osexp","C:\Users\emoore8\Desktop\m21_vsl-main","no","mono","no","18","no","white","no","yes","1080","legacy","33","33","C:/Users/emoore8/Desktop/m21_vsl-main/subject-210.csv","xpyriment","Lentiform Loewenfeld","3.3.11","0","/","NA","NA","NA","NA","space","/","685","NA","NA","NA","NA","117780","685","2","legacy","1024","2","48000","-16","AB_m21","210","even","FILL_W","GOLF","1613","270340","268485","265059","119559","NA","NA","NA","NA","NA","268985","NA","NA","NA","267985","NA","267958","1778","270540","NA","NA","NA","269025","1613","1765","NA","NA","269711","269735","267958","268985","269005","morph21_Oliver/Morris","19","32483","34","yes","1920","28"
"300","","54.285714285714285","54.285714285714285","953.4285714285714","953.4285714285714","black","no","xpyriment","legacy","legacy","0","208","NA","uniform","NA","NA","NA","0","undefined","0","0","34","34","34","0","34","34","34","NA","0","34","NA","NA","0","34","NA","34","0","34","NA","NA","NA","34","0","0","NA","NA","34","34","34","34","34","35","z","Tue Jun 27 13:21:10 2023","Executes Python code","yes","m21-ba-lexicalDecision.osexp","C:\Users\emoore8\Desktop\m21_vsl-main","no","mono","no","18","no","white","no","yes","1080","legacy","34","34","C:/Users/emoore8/Desktop/m21_vsl-main/subject-210.csv","xpyriment","Lentiform Loewenfeld","3.3.11","0","/","NA","NA","NA","NA","space","/","887","NA","NA","NA","NA","117780","887","2","legacy","1024","2","48000","-16","AB_m21","210","even","FILL_NW","SCURE","1613","274090","272034","265059","119559","NA","NA","NA","NA","NA","272535","NA","NA","NA","271534","NA","271511","1778","274390","NA","NA","NA","272576","1613","1765","NA","NA","273463","273487","271511","272535","272556","morph21_Oliver/Morris","19","33370","35","yes","1920","41"
"400","","52.77777777777778","52.77777777777778","960.2777777777778","960.2777777777778","black","no","xpyriment","legacy","legacy","0","208","NA","uniform","NA","NA","NA","0","undefined","0","0","35","35","35","0","35","35","35","NA","0","35","NA","NA","0","35","NA","35","0","35","NA","NA","NA","35","0","0","NA","NA","35","35","35","35","35","36","z","Tue Jun 27 13:21:10 2023","Executes Python code","yes","m21-ba-lexicalDecision.osexp","C:\Users\emoore8\Desktop\m21_vsl-main","no","mono","no","18","no","white","no","yes","1080","legacy","35","35","C:/Users/emoore8/Desktop/m21_vsl-main/subject-210.csv","xpyriment","Lentiform Loewenfeld","3.3.11","0","None","NA","NA","NA","NA","space","None","1200","NA","NA","NA","NA","117780","1200","2","legacy","1024","2","48000","-16","AB_m21","210","even","FILL_NW","DROES","1613","279764","275892","278260","119559","NA","NA","NA","NA","NA","276392","NA","NA","NA","275392","NA","275365","1778","280164","NA","NA","NA","276433","1613","1765","NA","NA","277633","277657","275365","276392","276413","morph21_Oliver/Morris","19","34570","36","yes","1920","17"
"200","","51.351351351351354","51.351351351351354","966.7567567567568","966.7567567567568","black","no","xpyriment","legacy","legacy","0","205","NA","uniform","NA","NA","NA","0","undefined","0","0","36","36","36","0","36","36","36","NA","0","36","NA","NA","0","36","NA","36","0","36","NA","NA","NA","36","0","0","NA","NA","36","36","36","36","36","37","z","Tue Jun 27 13:21:10 2023","Executes Python code","yes","m21-ba-lexicalDecision.osexp","C:\Users\emoore8\Desktop\m21_vsl-main","no","mono","no","18","no","white","no","yes","1080","legacy","36","36","C:/Users/emoore8/Desktop/m21_vsl-main/subject-210.csv","xpyriment","Lentiform Loewenfeld","3.3.11","0","None","NA","NA","NA","NA","space","None","1200","NA","NA","NA","NA","117780","1200","2","legacy","1024","2","48000","-16","AB_m21","210","even","NW_S_SIMP","THRILLANCE","1613","284048","281677","278260","119559","NA","NA","NA","NA","NA","282178","NA","NA","NA","281176","NA","281152","1778","284248","NA","NA","NA","282219","1613","1765","NA","NA","283419","283445","281152","282178","282199","morph21_Oliver/Morris","19","35770","37","yes","1920","22"
"200","","52.63157894736842","52.63157894736842","967.2368421052631","967.2368421052631","black","no","xpyriment","legacy","legacy","0","207","NA","uniform","NA","NA","NA","1","undefined","1","0","37","37","37","0","37","37","37","NA","0","37","NA","NA","0","37","NA","37","0","37","NA","NA","NA","37","0","0","NA","NA","37","37","37","37","37","38","/","Tue Jun 27 13:21:10 2023","Executes Python code","yes","m21-ba-lexicalDecision.osexp","C:\Users\emoore8\Desktop\m21_vsl-main","no","mono","no","18","no","white","no","yes","1080","legacy","37","37","C:/Users/emoore8/Desktop/m21_vsl-main/subject-210.csv","xpyriment","Lentiform Loewenfeld","3.3.11","0","/","NA","NA","NA","NA","space","/","985","NA","NA","NA","NA","117780","985","2","legacy","1024","2","48000","-16","AB_m21","210","even","FILL_W","BRASS","1613","287908","285751","278260","119559","NA","NA","NA","NA","NA","286252","NA","NA","NA","285250","NA","285224","1778","288109","NA","NA","NA","286294","1613","1765","NA","NA","287279","287304","285224","286252","286273","morph21_Oliver/Morris","20","36755","38","yes","1920","10"
"200","","53.84615384615385","53.84615384615385","972.3846153846154","972.3846153846154","black","no","xpyriment","legacy","legacy","0","202","NA","uniform","NA","NA","NA","1","undefined","1","0","38","38","38","0","38","38","38","NA","0","38","NA","NA","0","38","NA","38","0","38","NA","NA","NA","38","0","0","NA","NA","38","38","38","38","38","39","/","Tue Jun 27 13:21:10 2023","Executes Python code","yes","m21-ba-lexicalDecision.osexp","C:\Users\emoore8\Desktop\m21_vsl-main","no","mono","no","18","no","white","no","yes","1080","legacy","38","38","C:/Users/emoore8/Desktop/m21_vsl-main/subject-210.csv","xpyriment","Lentiform Loewenfeld","3.3.11","0","/","NA","NA","NA","NA","space","/","1168","NA","NA","NA","NA","117780","1168","2","legacy","1024","2","48000","-16","AB_m21","210","even","CW_L","COLLECTOR","1613","293479","289633","291972","119559","NA","NA","NA","NA","NA","290133","NA","NA","NA","289133","NA","289108","1778","293679","NA","NA","NA","290174","1613","1765","NA","NA","291343","291368","289108","290133","290154","morph21_Oliver/Morris","21","37923","39","yes","1920","46"
"200","","52.5","52.5","978.075","978.075","black","no","xpyriment","legacy","legacy","0","208","NA","uniform","NA","NA","NA","0","undefined","0","0","39","39","39","0","39","39","39","NA","0","39","NA","NA","0","39","NA","39","0","39","NA","NA","NA","39","0","0","NA","NA","39","39","39","39","39","40","z","Tue Jun 27 13:21:10 2023","Executes Python code","yes","m21-ba-lexicalDecision.osexp","C:\Users\emoore8\Desktop\m21_vsl-main","no","mono","no","18","no","white","no","yes","1080","legacy","39","39","C:/Users/emoore8/Desktop/m21_vsl-main/subject-210.csv","xpyriment","Lentiform Loewenfeld","3.3.11","0","None","NA","NA","NA","NA","space","None","1200","NA","NA","NA","NA","117780","1200","2","legacy","1024","2","48000","-16","AB_m21","210","even","FILL_NW","SMADE","1613","297557","295190","291972","119559","NA","NA","NA","NA","NA","295691","NA","NA","NA","294689","NA","294664","1778","297757","NA","NA","NA","295731","1613","1765","NA","NA","296931","296954","294664","295691","295711","morph21_Oliver/Morris","21","39123","40","yes","1920","42"
"300","","51.21951219512195","51.21951219512195","983.4878048780488","983.4878048780488","black","no","xpyriment","legacy","legacy","0","204","NA","uniform","NA","NA","NA","0","undefined","0","0","40","40","40","0","40","40","40","NA","0","40","NA","NA","0","40","NA","40","0","40","NA","NA","NA","40","0","0","NA","NA","40","40","40","40","40","41","z","Tue Jun 27 13:21:10 2023","Executes Python code","yes","m21-ba-lexicalDecision.osexp","C:\Users\emoore8\Desktop\m21_vsl-main","no","mono","no","18","no","white","no","yes","1080","legacy","40","40","C:/Users/emoore8/Desktop/m21_vsl-main/subject-210.csv","xpyriment","Lentiform Loewenfeld","3.3.11","0","None","NA","NA","NA","NA","space","None","1200","NA","NA","NA","NA","117780","1200","2","legacy","1024","2","48000","-16","AB_m21","210","even","NW_L_COMP","IME","1613","301634","299267","291972","119559","NA","NA","NA","NA","NA","299767","NA","NA","NA","298767","NA","298743","1778","301934","NA","NA","NA","299808","1613","1765","NA","NA","301008","301031","298742","299767","299788","morph21_Oliver/Morris","21","40323","41","yes","1920","20"
"200","","50","50","988.6428571428571","988.6428571428571","black","no","xpyriment","legacy","legacy","0","205","NA","uniform","NA","NA","NA","0","undefined","0","0","41","41","41","0","41","41","41","NA","0","41","NA","NA","0","41","NA","41","0","41","NA","NA","NA","41","0","0","NA","NA","41","41","41","41","41","42","z","Tue Jun 27 13:21:10 2023","Executes Python code","yes","m21-ba-lexicalDecision.osexp","C:\Users\emoore8\Desktop\m21_vsl-main","no","mono","no","18","no","white","no","yes","1080","legacy","41","41","C:/Users/emoore8/Desktop/m21_vsl-main/subject-210.csv","xpyriment","Lentiform Loewenfeld","3.3.11","0","None","NA","NA","NA","NA","space","None","1200","NA","NA","NA","NA","117780","1200","2","legacy","1024","2","48000","-16","AB_m21","210","even","NW_S_SIMP","NULLISH","1613","307311","303435","305804","119559","NA","NA","NA","NA","NA","303935","NA","NA","NA","302935","NA","302912","1778","307511","NA","NA","NA","303976","1613","1765","NA","NA","305176","305199","302912","303935","303956","morph21_Oliver/Morris","21","41523","42","yes","1920","23"
"350","","48.83720930232558","48.83720930232558","993.5581395348837","993.5581395348837","black","no","xpyriment","legacy","legacy","0","202","NA","uniform","NA","NA","NA","0","undefined","0","0","42","42","42","0","42","42","42","NA","0","42","NA","NA","0","42","NA","42","0","42","NA","NA","NA","42","0","0","NA","NA","42","42","42","42","42","43","/","Tue Jun 27 13:21:10 2023","Executes Python code","yes","m21-ba-lexicalDecision.osexp","C:\Users\emoore8\Desktop\m21_vsl-main","no","mono","no","18","no","white","no","yes","1080","legacy","42","42","C:/Users/emoore8/Desktop/m21_vsl-main/subject-210.csv","xpyriment","Lentiform Loewenfeld","3.3.11","0","None","NA","NA","NA","NA","space","None","1200","NA","NA","NA","NA","117780","1200","2","legacy","1024","2","48000","-16","AB_m21","210","even","CW_L","BARKER","1613","311400","309032","305804","119559","NA","NA","NA","NA","NA","309532","NA","NA","NA","308532","NA","308505","1778","311750","NA","NA","NA","309573","1613","1765","NA","NA","310773","310797","308505","309532","309553","morph21_Oliver/Morris","21","42723","43","yes","1920","2"
"350","","50","50","992.7045454545455","992.7045454545455","black","no","xpyriment","legacy","legacy","0","202","NA","uniform","NA","NA","NA","1","undefined","1","0","43","43","43","0","43","43","43","NA","0","43","NA","NA","0","43","NA","43","0","43","NA","NA","NA","43","0","0","NA","NA","43","43","43","43","43","44","/","Tue Jun 27 13:21:10 2023","Executes Python code","yes","m21-ba-lexicalDecision.osexp","C:\Users\emoore8\Desktop\m21_vsl-main","no","mono","no","18","no","white","no","yes","1080","legacy","43","43","C:/Users/emoore8/Desktop/m21_vsl-main/subject-210.csv","xpyriment","Lentiform Loewenfeld","3.3.11","0","/","NA","NA","NA","NA","space","/","956","NA","NA","NA","NA","117780","956","2","legacy","1024","2","48000","-16","AB_m21","210","even","CW_L","KICKING","1613","315386","313263","305804","119559","NA","NA","NA","NA","NA","313763","NA","NA","NA","312763","NA","312738","1778","315736","NA","NA","NA","313803","1613","1765","NA","NA","314759","314783","312738","313763","313783","morph21_Oliver/Morris","22","43679","44","yes","1920","23"
"350","","48.888888888888886","48.888888888888886","997.3111111111111","997.3111111111111","black","no","xpyriment","legacy","legacy","0","208","NA","uniform","NA","NA","NA","0","undefined","0","0","44","44","44","0","44","44","44","NA","0","44","NA","NA","0","44","NA","44","0","44","NA","NA","NA","44","0","0","NA","NA","44","44","44","44","44","45","z","Tue Jun 27 13:21:10 2023","Executes Python code","yes","m21-ba-lexicalDecision.osexp","C:\Users\emoore8\Desktop\m21_vsl-main","no","mono","no","18","no","white","no","yes","1080","legacy","44","44","C:/Users/emoore8/Desktop/m21_vsl-main/subject-210.csv","xpyriment","Lentiform Loewenfeld","3.3.11","0","None","NA","NA","NA","NA","space","None","1200","NA","NA","NA","NA","117780","1200","2","legacy","1024","2","48000","-16","AB_m21","210","even","FILL_NW","HEAS","1613","321119","317246","319616","119559","NA","NA","NA","NA","NA","317747","NA","NA","NA","316745","NA","316717","1778","321469","NA","NA","NA","317787","1613","1765","NA","NA","318987","319012","316717","317747","317767","morph21_Oliver/Morris","22","44879","45","yes","1920","26"
"250","","47.82608695652174","47.82608695652174","1001.7173913043479","1001.7173913043479","black","no","xpyriment","legacy","legacy","0","203","NA","uniform","NA","NA","NA","0","undefined","0","0","45","45","45","0","45","45","45","NA","0","45","NA","NA","0","45","NA","45","0","45","NA","NA","NA","45","0","0","NA","NA","45","45","45","45","45","46","z","Tue Jun 27 13:21:10 2023","Executes Python code","yes","m21-ba-lexicalDecision.osexp","C:\Users\emoore8\Desktop\m21_vsl-main","no","mono","no","18","no","white","no","yes","1080","legacy","45","45","C:/Users/emoore8/Desktop/m21_vsl-main/subject-210.csv","xpyriment","Lentiform Loewenfeld","3.3.11","0","None","NA","NA","NA","NA","space","None","1200","NA","NA","NA","NA","117780","1200","2","legacy","1024","2","48000","-16","AB_m21","210","even","NW_S_COMP","TREASONIME","1613","325356","322987","319616","119559","NA","NA","NA","NA","NA","323487","NA","NA","NA","322486","NA","322458","1778","325606","NA","NA","NA","323528","1613","1765","NA","NA","324728","324752","322458","323487","323508","morph21_Oliver/Morris","22","46079","46","yes","1920","14"
"350","","46.808510638297875","46.808510638297875","1005.936170212766","1005.936170212766","black","no","xpyriment","legacy","legacy","0","208","NA","uniform","NA","NA","NA","0","undefined","0","0","46","46","46","0","46","46","46","NA","0","46","NA","NA","0","46","NA","46","0","46","NA","NA","NA","46","0","0","NA","NA","46","46","46","46","46","47","z","Tue Jun 27 13:21:10 2023","Executes Python code","yes","m21-ba-lexicalDecision.osexp","C:\Users\emoore8\Desktop\m21_vsl-main","no","mono","no","18","no","white","no","yes","1080","legacy","46","46","C:/Users/emoore8/Desktop/m21_vsl-main/subject-210.csv","xpyriment","Lentiform Loewenfeld","3.3.11","0","None","NA","NA","NA","NA","space","None","1200","NA","NA","NA","NA","117780","1200","2","legacy","1024","2","48000","-16","AB_m21","210","even","FILL_NW","DASP","1613","329470","327102","319616","119559","NA","NA","NA","NA","NA","327603","NA","NA","NA","326602","NA","326577","1778","329820","NA","NA","NA","327644","1613","1765","NA","NA","328844","328867","326577","327603","327624","morph21_Oliver/Morris","22","47279","47","yes","1920","13"
"400","","45.833333333333336","45.833333333333336","1009.9791666666666","1009.9791666666666","black","no","xpyriment","legacy","legacy","0","205","NA","uniform","NA","NA","NA","0","undefined","0","0","47","47","47","0","47","47","47","NA","0","47","NA","NA","0","47","NA","47","0","47","NA","NA","NA","47","0","0","NA","NA","47","47","47","47","47","48","z","Tue Jun 27 13:21:10 2023","Executes Python code","yes","m21-ba-lexicalDecision.osexp","C:\Users\emoore8\Desktop\m21_vsl-main","no","mono","no","18","no","white","no","yes","1080","legacy","47","47","C:/Users/emoore8/Desktop/m21_vsl-main/subject-210.csv","xpyriment","Lentiform Loewenfeld","3.3.11","0","None","NA","NA","NA","NA","space","None","1200","NA","NA","NA","NA","117780","1200","2","legacy","1024","2","48000","-16","AB_m21","210","even","NW_S_SIMP","MEDICALARY","1613","335191","331319","333687","119559","NA","NA","NA","NA","NA","331819","NA","NA","NA","330818","NA","330792","1778","335591","NA","NA","NA","331860","1613","1765","NA","NA","333060","333084","330792","331819","331840","morph21_Oliver/Morris","22","48479","48","yes","1920","18"
"200","","44.89795918367347","44.89795918367347","1013.8571428571429","1013.8571428571429","black","no","xpyriment","legacy","legacy","0","203","NA","uniform","NA","NA","NA","0","undefined","0","0","48","48","48","0","48","48","48","NA","0","48","NA","NA","0","48","NA","48","0","48","NA","NA","NA","48","0","0","NA","NA","48","48","48","48","48","49","z","Tue Jun 27 13:21:10 2023","Executes Python code","yes","m21-ba-lexicalDecision.osexp","C:\Users\emoore8\Desktop\m21_vsl-main","no","mono","no","18","no","white","no","yes","1080","legacy","48","48","C:/Users/emoore8/Desktop/m21_vsl-main/subject-210.csv","xpyriment","Lentiform Loewenfeld","3.3.11","0","None","NA","NA","NA","NA","space","None","1200","NA","NA","NA","NA","117780","1200","2","legacy","1024","2","48000","-16","AB_m21","210","even","NW_S_COMP","MELTANGE","1613","339478","337107","333687","119559","NA","NA","NA","NA","NA","337608","NA","NA","NA","336605","NA","336582","1778","339678","NA","NA","NA","337649","1613","1765","NA","NA","338849","338873","336582","337608","337629","morph21_Oliver/Morris","22","49679","49","yes","1920","1"
"350","","46","46","1005.12","1005.12","black","no","xpyriment","legacy","legacy","0","208","NA","uniform","NA","NA","NA","1","undefined","1","0","49","49","49","0","49","49","49","NA","0","49","NA","NA","0","49","NA","49","0","49","NA","NA","NA","49","0","0","NA","NA","49","49","49","49","49","50","z","Tue Jun 27 13:21:10 2023","Executes Python code","yes","m21-ba-lexicalDecision.osexp","C:\Users\emoore8\Desktop\m21_vsl-main","no","mono","no","18","no","white","no","yes","1080","legacy","49","49","C:/Users/emoore8/Desktop/m21_vsl-main/subject-210.csv","xpyriment","Lentiform Loewenfeld","3.3.11","0","z","NA","NA","NA","NA","space","z","577","NA","NA","NA","NA","117780","577","2","legacy","1024","2","48000","-16","AB_m21","210","even","FILL_NW","DOADS","1613","342930","341186","333687","119559","NA","NA","NA","NA","NA","341686","NA","NA","NA","340686","NA","340658","1778","343280","NA","NA","NA","341726","1613","1765","NA","NA","342303","342327","340658","341686","341706","morph21_Oliver/Morris","23","50256","50","yes","1920","15"
"350","","47.05882352941177","47.05882352941177","1001.5490196078431","1001.5490196078431","black","no","xpyriment","legacy","legacy","0","201","NA","uniform","NA","NA","NA","1","undefined","1","0","50","50","50","0","50","50","50","NA","0","50","NA","NA","0","50","NA","50","0","50","NA","NA","NA","50","0","0","NA","NA","50","50","50","50","50","51","/","Tue Jun 27 13:21:10 2023","Executes Python code","yes","m21-ba-lexicalDecision.osexp","C:\Users\emoore8\Desktop\m21_vsl-main","no","mono","no","18","no","white","no","yes","1080","legacy","50","50","C:/Users/emoore8/Desktop/m21_vsl-main/subject-210.csv","xpyriment","Lentiform Loewenfeld","3.3.11","0","/","NA","NA","NA","NA","space","/","823","NA","NA","NA","NA","117780","823","2","legacy","1024","2","48000","-16","AB_m21","210","even","CW_S","AMAZEMENT","1613","348299","344803","346794","119559","NA","NA","NA","NA","NA","345303","NA","NA","NA","344302","NA","344278","1778","348649","NA","NA","NA","345343","1613","1765","NA","NA","346167","346190","344278","345303","345323","morph21_Oliver/Morris","24","51079","51","yes","1920","39"
"350","","48.07692307692308","48.07692307692308","1002.25","1002.25","black","no","xpyriment","legacy","legacy","0","206","NA","uniform","NA","NA","NA","1","undefined","1","0","51","51","51","0","51","51","51","NA","0","51","NA","NA","0","51","NA","51","0","51","NA","NA","NA","51","0","0","NA","NA","51","51","51","51","51","52","z","Tue Jun 27 13:21:10 2023","Executes Python code","yes","m21-ba-lexicalDecision.osexp","C:\Users\emoore8\Desktop\m21_vsl-main","no","mono","no","18","no","white","no","yes","1080","legacy","51","51","C:/Users/emoore8/Desktop/m21_vsl-main/subject-210.csv","xpyriment","Lentiform Loewenfeld","3.3.11","0","z","NA","NA","NA","NA","space","z","1038","NA","NA","NA","NA","117780","1038","2","legacy","1024","2","48000","-16","AB_m21","210","even","NW_L_SIMP","CRITICANCE","1613","352388","350179","346794","119559","NA","NA","NA","NA","NA","350680","NA","NA","NA","349677","NA","349653","1778","352738","NA","NA","NA","350721","1613","1765","NA","NA","351759","351785","349653","350680","350701","morph21_Oliver/Morris","25","52117","52","yes","1920","22"
"300","","49.056603773584904","49.056603773584904","999.3396226415094","999.3396226415094","black","no","xpyriment","legacy","legacy","0","205","NA","uniform","NA","NA","NA","1","undefined","1","0","52","52","52","0","52","52","52","NA","0","52","NA","NA","0","52","NA","52","0","52","NA","NA","NA","52","0","0","NA","NA","52","52","52","52","52","53","z","Tue Jun 27 13:21:10 2023","Executes Python code","yes","m21-ba-lexicalDecision.osexp","C:\Users\emoore8\Desktop\m21_vsl-main","no","mono","no","18","no","white","no","yes","1080","legacy","52","52","C:/Users/emoore8/Desktop/m21_vsl-main/subject-210.csv","xpyriment","Lentiform Loewenfeld","3.3.11","0","z","NA","NA","NA","NA","space","z","848","NA","NA","NA","NA","117780","848","2","legacy","1024","2","48000","-16","AB_m21","210","even","NW_S_SIMP","FEVERIZE","1613","356266","354251","346794","119559","NA","NA","NA","NA","NA","354751","NA","NA","NA","353750","NA","353724","1778","356566","NA","NA","NA","354791","1613","1765","NA","NA","355640","355663","353724","354751","354771","morph21_Oliver/Morris","26","52965","53","yes","1920","24"
"200","","50","50","997.0185185185185","997.0185185185185","black","no","xpyriment","legacy","legacy","0","201","NA","uniform","NA","NA","NA","1","undefined","1","0","53","53","53","0","53","53","53","NA","0","53","NA","NA","0","53","NA","53","0","53","NA","NA","NA","53","0","0","NA","NA","53","53","53","53","53","54","/","Tue Jun 27 13:21:10 2023","Executes Python code","yes","m21-ba-lexicalDecision.osexp","C:\Users\emoore8\Desktop\m21_vsl-main","no","mono","no","18","no","white","no","yes","1080","legacy","53","53","C:/Users/emoore8/Desktop/m21_vsl-main/subject-210.csv","xpyriment","Lentiform Loewenfeld","3.3.11","0","/","NA","NA","NA","NA","space","/","874","NA","NA","NA","NA","117780","874","2","legacy","1024","2","48000","-16","AB_m21","210","even","CW_S","AMUSEMENT","1613","361658","358111","360154","119559","NA","NA","NA","NA","NA","358613","NA","NA","NA","357609","NA","357585","1778","361858","NA","NA","NA","358653","1613","1765","NA","NA","359527","359551","357584","358613","358633","morph21_Oliver/Morris","27","53839","54","yes","1920","38"
"200","","50.90909090909091","50.90909090909091","993.6","993.6","black","no","xpyriment","legacy","legacy","0","202","NA","uniform","NA","NA","NA","1","undefined","1","0","54","54","54","0","54","54","54","NA","0","54","NA","NA","0","54","NA","54","0","54","NA","NA","NA","54","0","0","NA","NA","54","54","54","54","54","55","/","Tue Jun 27 13:21:10 2023","Executes Python code","yes","m21-ba-lexicalDecision.osexp","C:\Users\emoore8\Desktop\m21_vsl-main","no","mono","no","18","no","white","no","yes","1080","legacy","54","54","C:/Users/emoore8/Desktop/m21_vsl-main/subject-210.csv","xpyriment","Lentiform Loewenfeld","3.3.11","0","/","NA","NA","NA","NA","space","/","809","NA","NA","NA","NA","117780","809","2","legacy","1024","2","48000","-16","AB_m21","210","even","CW_L","SAILOR","1613","365355","363375","360154","119559","NA","NA","NA","NA","NA","363876","NA","NA","NA","362874","NA","362850","1778","365555","NA","NA","NA","363917","1613","1765","NA","NA","364727","364751","362850","363876","363897","morph21_Oliver/Morris","28","54648","55","yes","1920","43"
"250","","51.785714285714285","51.785714285714285","989.5714285714286","989.5714285714286","black","no","xpyriment","legacy","legacy","0","208","NA","uniform","NA","NA","NA","1","undefined","1","0","55","55","55","0","55","55","55","NA","0","55","NA","NA","0","55","NA","55","0","55","NA","NA","NA","55","0","0","NA","NA","55","55","55","55","55","56","z","Tue Jun 27 13:21:10 2023","Executes Python code","yes","m21-ba-lexicalDecision.osexp","C:\Users\emoore8\Desktop\m21_vsl-main","no","mono","no","18","no","white","no","yes","1080","legacy","55","55","C:/Users/emoore8/Desktop/m21_vsl-main/subject-210.csv","xpyriment","Lentiform Loewenfeld","3.3.11","0","z","NA","NA","NA","NA","space","z","768","NA","NA","NA","NA","117780","768","2","legacy","1024","2","48000","-16","AB_m21","210","even","FILL_NW","BUWL","1613","368994","367057","360154","119559","NA","NA","NA","NA","NA","367558","NA","NA","NA","366556","NA","366530","1778","369244","NA","NA","NA","367599","1613","1765","NA","NA","368367","368391","366529","367558","367579","morph21_Oliver/Morris","29","55416","56","yes","1920","9"
"200","","52.63157894736842","52.63157894736842","991.3859649122807","991.3859649122807","black","no","xpyriment","legacy","legacy","0","203","NA","uniform","NA","NA","NA","1","undefined","1","0","56","56","56","0","56","56","56","NA","0","56","NA","NA","0","56","NA","56","0","56","NA","NA","NA","56","0","0","NA","NA","56","56","56","56","56","57","z","Tue Jun 27 13:21:10 2023","Executes Python code","yes","m21-ba-lexicalDecision.osexp","C:\Users\emoore8\Desktop\m21_vsl-main","no","mono","no","18","no","white","no","yes","1080","legacy","56","56","C:/Users/emoore8/Desktop/m21_vsl-main/subject-210.csv","xpyriment","Lentiform Loewenfeld","3.3.11","0","z","NA","NA","NA","NA","space","z","1093","NA","NA","NA","NA","117780","1093","2","legacy","1024","2","48000","-16","AB_m21","210","even","NW_S_COMP","ANTILM","1613","374523","370757","373019","119559","NA","NA","NA","NA","NA","371257","NA","NA","NA","370257","NA","370229","1778","374723","NA","NA","NA","371298","1613","1765","NA","NA","372391","372416","370229","371257","371277","morph21_Oliver/Morris","30","56509","57","yes","1920","8"
"400","","53.44827586206897","53.44827586206897","991.5344827586207","991.5344827586207","black","no","xpyriment","legacy","legacy","0","201","NA","uniform","NA","NA","NA","1","undefined","1","0","57","57","57","0","57","57","57","NA","0","57","NA","NA","0","57","NA","57","0","57","NA","NA","NA","57","0","0","NA","NA","57","57","57","57","57","58","/","Tue Jun 27 13:21:10 2023","Executes Python code","yes","m21-ba-lexicalDecision.osexp","C:\Users\emoore8\Desktop\m21_vsl-main","no","mono","no","18","no","white","no","yes","1080","legacy","57","57","C:/Users/emoore8/Desktop/m21_vsl-main/subject-210.csv","xpyriment","Lentiform Loewenfeld","3.3.11","0","/","NA","NA","NA","NA","space","/","1000","NA","NA","NA","NA","117780","1000","2","legacy","1024","2","48000","-16","AB_m21","210","even","CW_S","DIETARY","1613","378419","376249","373019","119559","NA","NA","NA","NA","NA","376749","NA","NA","NA","375748","NA","375720","1778","378819","NA","NA","NA","376790","1613","1765","NA","NA","377791","377815","375720","376749","376770","morph21_Oliver/Morris","31","57509","58","yes","1920","6"
"250","","54.23728813559322","54.23728813559322","987.728813559322","987.728813559322","black","no","xpyriment","legacy","legacy","0","208","NA","uniform","NA","NA","NA","1","undefined","1","0","58","58","58","0","58","58","58","NA","0","58","NA","NA","0","58","NA","58","0","58","NA","NA","NA","58","0","0","NA","NA","58","58","58","58","58","59","z","Tue Jun 27 13:21:10 2023","Executes Python code","yes","m21-ba-lexicalDecision.osexp","C:\Users\emoore8\Desktop\m21_vsl-main","no","mono","no","18","no","white","no","yes","1080","legacy","58","58","C:/Users/emoore8/Desktop/m21_vsl-main/subject-210.csv","xpyriment","Lentiform Loewenfeld","3.3.11","0","z","NA","NA","NA","NA","space","z","767","NA","NA","NA","NA","117780","767","2","legacy","1024","2","48000","-16","AB_m21","210","even","FILL_NW","LOLDS","1613","382257","380323","373019","119559","NA","NA","NA","NA","NA","380823","NA","NA","NA","379822","NA","379795","1778","382507","NA","NA","NA","380863","1613","1765","NA","NA","381631","381654","379795","380823","380843","morph21_Oliver/Morris","32","58276","59","yes","1920","34"
"350","","55","55","982.9333333333333","982.9333333333333","black","no","xpyriment","legacy","legacy","0","201","NA","uniform","NA","NA","NA","1","undefined","1","0","59","59","59","0","59","59","59","NA","0","59","NA","NA","0","59","NA","59","0","59","NA","NA","NA","59","0","0","NA","NA","59","59","59","59","59","60","/","Tue Jun 27 13:21:10 2023","Executes Python code","yes","m21-ba-lexicalDecision.osexp","C:\Users\emoore8\Desktop\m21_vsl-main","no","mono","no","18","no","white","no","yes","1080","legacy","59","59","C:/Users/emoore8/Desktop/m21_vsl-main/subject-210.csv","xpyriment","Lentiform Loewenfeld","3.3.11","0","/","NA","NA","NA","NA","space","/","700","NA","NA","NA","NA","117780","700","2","legacy","1024","2","48000","-16","AB_m21","210","even","CW_S","BEARDED","1613","387394","384021","385891","119559","NA","NA","NA","NA","NA","384522","NA","NA","NA","383521","NA","383494","1778","387744","NA","NA","NA","384563","1613","1765","NA","NA","385264","385287","383494","384522","384543","morph21_Oliver/Morris","33","58976","60","yes","1920","8"
"250","","54.09836065573771","54.09836065573771","983.0327868852459","983.0327868852459","black","no","xpyriment","legacy","legacy","0","207","NA","uniform","NA","NA","NA","0","undefined","0","0","60","60","60","0","60","60","60","NA","0","60","NA","NA","0","60","NA","60","0","60","NA","NA","NA","60","0","0","NA","NA","60","60","60","60","60","61","/","Tue Jun 27 13:21:10 2023","Executes Python code","yes","m21-ba-lexicalDecision.osexp","C:\Users\emoore8\Desktop\m21_vsl-main","no","mono","no","18","no","white","no","yes","1080","legacy","60","60","C:/Users/emoore8/Desktop/m21_vsl-main/subject-210.csv","xpyriment","Lentiform Loewenfeld","3.3.11","0","z","NA","NA","NA","NA","space","z","989","NA","NA","NA","NA","117780","989","2","legacy","1024","2","48000","-16","AB_m21","210","even","FILL_W","WEAVE","1613","391413","389253","385891","119559","NA","NA","NA","NA","NA","389753","NA","NA","NA","388753","NA","388726","1778","391663","NA","NA","NA","389794","1613","1765","NA","NA","390784","390808","388726","389753","389774","morph21_Oliver/Morris","33","59965","61","yes","1920","12"
"300","","54.83870967741935","54.83870967741935","982.5806451612904","982.5806451612904","black","no","xpyriment","legacy","legacy","0","205","NA","uniform","NA","NA","NA","1","undefined","1","0","61","61","61","0","61","61","61","NA","0","61","NA","NA","0","61","NA","61","0","61","NA","NA","NA","61","0","0","NA","NA","61","61","61","61","61","62","z","Tue Jun 27 13:21:10 2023","Executes Python code","yes","m21-ba-lexicalDecision.osexp","C:\Users\emoore8\Desktop\m21_vsl-main","no","mono","no","18","no","white","no","yes","1080","legacy","61","61","C:/Users/emoore8/Desktop/m21_vsl-main/subject-210.csv","xpyriment","Lentiform Loewenfeld","3.3.11","0","z","NA","NA","NA","NA","space","z","955","NA","NA","NA","NA","117780","955","2","legacy","1024","2","48000","-16","AB_m21","210","even","NW_S_SIMP","SOCKETER","1613","395289","393166","385891","119559","NA","NA","NA","NA","NA","393666","NA","NA","NA","392666","NA","392642","1778","395590","NA","NA","NA","393707","1613","1765","NA","NA","394663","394686","392642","393666","393687","morph21_Oliver/Morris","34","60920","62","yes","1920","1"
"250","","53.96825396825397","53.96825396825397","986.031746031746","986.031746031746","black","no","xpyriment","legacy","legacy","0","201","NA","uniform","NA","NA","NA","0","undefined","0","0","62","62","62","0","62","62","62","NA","0","62","NA","NA","0","62","NA","62","0","62","NA","NA","NA","62","0","0","NA","NA","62","62","62","62","62","63","/","Tue Jun 27 13:21:10 2023","Executes Python code","yes","m21-ba-lexicalDecision.osexp","C:\Users\emoore8\Desktop\m21_vsl-main","no","mono","no","18","no","white","no","yes","1080","legacy","62","62","C:/Users/emoore8/Desktop/m21_vsl-main/subject-210.csv","xpyriment","Lentiform Loewenfeld","3.3.11","0","None","NA","NA","NA","NA","space","None","1200","NA","NA","NA","NA","117780","1200","2","legacy","1024","2","48000","-16","AB_m21","210","even","CW_S","MILDNESS","1613","400969","397096","399464","119559","NA","NA","NA","NA","NA","397596","NA","NA","NA","396596","NA","396571","1778","401219","NA","NA","NA","397637","1613","1765","NA","NA","398837","398860","396571","397596","397617","morph21_Oliver/Morris","34","62120","63","yes","1920","42"
"300","","54.6875","54.6875","982.015625","982.015625","black","no","xpyriment","legacy","legacy","0","201","NA","uniform","NA","NA","NA","1","undefined","1","0","63","63","63","0","63","63","63","NA","0","63","NA","NA","0","63","NA","63","0","63","NA","NA","NA","63","0","0","NA","NA","63","63","63","63","63","64","/","Tue Jun 27 13:21:10 2023","Executes Python code","yes","m21-ba-lexicalDecision.osexp","C:\Users\emoore8\Desktop\m21_vsl-main","no","mono","no","18","no","white","no","yes","1080","legacy","63","63","C:/Users/emoore8/Desktop/m21_vsl-main/subject-210.csv","xpyriment","Lentiform Loewenfeld","3.3.11","0","/","NA","NA","NA","NA","space","/","729","NA","NA","NA","NA","117780","729","2","legacy","1024","2","48000","-16","AB_m21","210","even","CW_S","INSISTENT","1613","404650","402752","399464","119559","NA","NA","NA","NA","NA","403252","NA","NA","NA","402251","NA","402225","1778","404950","NA","NA","NA","403293","1613","1765","NA","NA","404023","404047","402225","403252","403273","morph21_Oliver/Morris","35","62849","64","yes","1920","9"
"200","","55.38461538461539","55.38461538461539","974.1076923076923","974.1076923076923","black","no","xpyriment","legacy","legacy","0","207","NA","uniform","NA","NA","NA","1","undefined","1","0","64","64","64","0","64","64","64","NA","0","64","NA","NA","0","64","NA","64","0","64","NA","NA","NA","64","0","0","NA","NA","64","64","64","64","64","65","/","Tue Jun 27 13:21:10 2023","Executes Python code","yes","m21-ba-lexicalDecision.osexp","C:\Users\emoore8\Desktop\m21_vsl-main","no","mono","no","18","no","white","no","yes","1080","legacy","64","64","C:/Users/emoore8/Desktop/m21_vsl-main/subject-210.csv","xpyriment","Lentiform Loewenfeld","3.3.11","0","/","NA","NA","NA","NA","space","/","468","NA","NA","NA","NA","117780","468","2","legacy","1024","2","48000","-16","AB_m21","210","even","FILL_W","FLESH","1613","408099","406461","399464","119559","NA","NA","NA","NA","NA","406962","NA","NA","NA","405961","NA","405933","1778","408300","NA","NA","NA","407002","1613","1765","NA","NA","407471","407496","405933","406961","406982","morph21_Oliver/Morris","36","63317","65","yes","1920","32"
"250","","54.54545454545455","54.54545454545455","966.3787878787879","966.3787878787879","black","no","xpyriment","legacy","legacy","0","203","NA","uniform","NA","NA","NA","0","undefined","0","0","65","65","65","0","65","65","65","NA","0","65","NA","NA","0","65","NA","65","0","65","NA","NA","NA","65","0","0","NA","NA","65","65","65","65","65","66","z","Tue Jun 27 13:21:10 2023","Executes Python code","yes","m21-ba-lexicalDecision.osexp","C:\Users\emoore8\Desktop\m21_vsl-main","no","mono","no","18","no","white","no","yes","1080","legacy","65","65","C:/Users/emoore8/Desktop/m21_vsl-main/subject-210.csv","xpyriment","Lentiform Loewenfeld","3.3.11","0","/","NA","NA","NA","NA","space","/","464","NA","NA","NA","NA","117780","464","2","legacy","1024","2","48000","-16","AB_m21","210","even","NW_S_COMP","BRANCHEL","1613","412954","409818","411451","119559","NA","NA","NA","NA","NA","410319","NA","NA","NA","409318","NA","409292","1778","413204","NA","NA","NA","410359","1613","1765","NA","NA","410823","410848","409292","410319","410339","morph21_Oliver/Morris","36","63781","66","yes","1920","16"
"200","","55.223880597014926","55.223880597014926","966.0597014925373","966.0597014925373","black","no","xpyriment","legacy","legacy","0","202","NA","uniform","NA","NA","NA","1","undefined","1","0","66","66","66","0","66","66","66","NA","0","66","NA","NA","0","66","NA","66","0","66","NA","NA","NA","66","0","0","NA","NA","66","66","66","66","66","67","/","Tue Jun 27 13:21:10 2023","Executes Python code","yes","m21-ba-lexicalDecision.osexp","C:\Users\emoore8\Desktop\m21_vsl-main","no","mono","no","18","no","white","no","yes","1080","legacy","66","66","C:/Users/emoore8/Desktop/m21_vsl-main/subject-210.csv","xpyriment","Lentiform Loewenfeld","3.3.11","0","/","NA","NA","NA","NA","space","/","945","NA","NA","NA","NA","117780","945","2","legacy","1024","2","48000","-16","AB_m21","210","even","CW_L","BONELESS","1613","416811","414697","411451","119559","NA","NA","NA","NA","NA","415197","NA","NA","NA","414197","NA","414174","1778","417011","NA","NA","NA","415237","1613","1765","NA","NA","416183","416207","414174","415197","415217","morph21_Oliver/Morris","37","64726","67","yes","1920","34"
"400","","55.88235294117647","55.88235294117647","967.0441176470588","967.0441176470588","black","no","xpyriment","legacy","legacy","0","208","NA","uniform","NA","NA","NA","1","undefined","1","0","67","67","67","0","67","67","67","NA","0","67","NA","NA","0","67","NA","67","0","67","NA","NA","NA","67","0","0","NA","NA","67","67","67","67","67","68","z","Tue Jun 27 13:21:10 2023","Executes Python code","yes","m21-ba-lexicalDecision.osexp","C:\Users\emoore8\Desktop\m21_vsl-main","no","mono","no","18","no","white","no","yes","1080","legacy","67","67","C:/Users/emoore8/Desktop/m21_vsl-main/subject-210.csv","xpyriment","Lentiform Loewenfeld","3.3.11","0","z","NA","NA","NA","NA","space","z","1033","NA","NA","NA","NA","117780","1033","2","legacy","1024","2","48000","-16","AB_m21","210","even","FILL_NW","BORMS","1613","420716","418510","411451","119559","NA","NA","NA","NA","NA","419012","NA","NA","NA","418009","NA","417983","1778","421116","NA","NA","NA","419053","1613","1765","NA","NA","420087","420113","417983","419011","419032","morph21_Oliver/Morris","38","65759","68","yes","1920","50"
"200","","56.52173913043478","56.52173913043478","965.768115942029","965.768115942029","black","no","xpyriment","legacy","legacy","0","208","NA","uniform","NA","NA","NA","1","undefined","1","0","68","68","68","0","68","68","68","NA","0","68","NA","NA","0","68","NA","68","0","68","NA","NA","NA","68","0","0","NA","NA","68","68","68","68","68","69","z","Tue Jun 27 13:21:10 2023","Executes Python code","yes","m21-ba-lexicalDecision.osexp","C:\Users\emoore8\Desktop\m21_vsl-main","no","mono","no","18","no","white","no","yes","1080","legacy","68","68","C:/Users/emoore8/Desktop/m21_vsl-main/subject-210.csv","xpyriment","Lentiform Loewenfeld","3.3.11","0","z","NA","NA","NA","NA","space","z","879","NA","NA","NA","NA","117780","879","2","legacy","1024","2","48000","-16","AB_m21","210","even","FILL_NW","HOITS","1613","426172","422618","424666","119559","NA","NA","NA","NA","NA","423118","NA","NA","NA","422118","NA","422093","1778","426372","NA","NA","NA","423159","1613","1765","NA","NA","424039","424063","422093","423118","423139","morph21_Oliver/Morris","39","66638","69","yes","1920","30"
"250","","55.714285714285715","55.714285714285715","969.1142857142858","969.1142857142858","black","no","xpyriment","legacy","legacy","0","207","NA","uniform","NA","NA","NA","0","undefined","0","0","69","69","69","0","69","69","69","NA","0","69","NA","NA","0","69","NA","69","0","69","NA","NA","NA","69","0","0","NA","NA","69","69","69","69","69","70","/","Tue Jun 27 13:21:10 2023","Executes Python code","yes","m21-ba-lexicalDecision.osexp","C:\Users\emoore8\Desktop\m21_vsl-main","no","mono","no","18","no","white","no","yes","1080","legacy","69","69","C:/Users/emoore8/Desktop/m21_vsl-main/subject-210.csv","xpyriment","Lentiform Loewenfeld","3.3.11","0","None","NA","NA","NA","NA","space","None","1200","NA","NA","NA","NA","117780","1200","2","legacy","1024","2","48000","-16","AB_m21","210","even","FILL_W","SLIM","1613","430247","427879","424666","119559","NA","NA","NA","NA","NA","428380","NA","NA","NA","427378","NA","427354","1778","430497","NA","NA","NA","428421","1613","1765","NA","NA","429621","429644","427354","428380","428401","morph21_Oliver/Morris","39","67838","70","yes","1920","6"
"300","","56.33802816901409","56.33802816901409","968.887323943662","968.887323943662","black","no","xpyriment","legacy","legacy","0","207","NA","uniform","NA","NA","NA","1","undefined","1","0","70","70","70","0","70","70","70","NA","0","70","NA","NA","0","70","NA","70","0","70","NA","NA","NA","70","0","0","NA","NA","70","70","70","70","70","71","/","Tue Jun 27 13:21:10 2023","Executes Python code","yes","m21-ba-lexicalDecision.osexp","C:\Users\emoore8\Desktop\m21_vsl-main","no","mono","no","18","no","white","no","yes","1080","legacy","70","70","C:/Users/emoore8/Desktop/m21_vsl-main/subject-210.csv","xpyriment","Lentiform Loewenfeld","3.3.11","0","/","NA","NA","NA","NA","space","/","953","NA","NA","NA","NA","117780","953","2","legacy","1024","2","48000","-16","AB_m21","210","even","FILL_W","MOURN","1613","434122","432000","424666","119559","NA","NA","NA","NA","NA","432501","NA","NA","NA","431500","NA","431476","1778","434422","NA","NA","NA","432542","1613","1765","NA","NA","433496","433519","431476","432501","432522","morph21_Oliver/Morris","40","68791","71","yes","1920","26"
"300","","56.94444444444444","56.94444444444444","966.5416666666666","966.5416666666666","black","no","xpyriment","legacy","legacy","0","208","NA","uniform","NA","NA","NA","1","undefined","1","0","71","71","71","0","71","71","71","NA","0","71","NA","NA","0","71","NA","71","0","71","NA","NA","NA","71","0","0","NA","NA","71","71","71","71","71","72","z","Tue Jun 27 13:21:10 2023","Executes Python code","yes","m21-ba-lexicalDecision.osexp","C:\Users\emoore8\Desktop\m21_vsl-main","no","mono","no","18","no","white","no","yes","1080","legacy","71","71","C:/Users/emoore8/Desktop/m21_vsl-main/subject-210.csv","xpyriment","Lentiform Loewenfeld","3.3.11","0","z","NA","NA","NA","NA","space","z","800","NA","NA","NA","NA","117780","800","2","legacy","1024","2","48000","-16","AB_m21","210","even","FILL_NW","DASK","1613","439393","435923","437890","119559","NA","NA","NA","NA","NA","436423","NA","NA","NA","435421","NA","435396","1778","439693","NA","NA","NA","436463","1613","1765","NA","NA","437264","437287","435396","436423","436443","morph21_Oliver/Morris","41","69591","72","yes","1920","12"
"250","","57.534246575342465","57.534246575342465","960.5342465753424","960.5342465753424","black","no","xpyriment","legacy","legacy","0","202","NA","uniform","NA","NA","NA","1","undefined","1","0","72","72","72","0","72","72","72","NA","0","72","NA","NA","0","72","NA","72","0","72","NA","NA","NA","72","0","0","NA","NA","72","72","72","72","72","73","/","Tue Jun 27 13:21:10 2023","Executes Python code","yes","m21-ba-lexicalDecision.osexp","C:\Users\emoore8\Desktop\m21_vsl-main","no","mono","no","18","no","white","no","yes","1080","legacy","72","72","C:/Users/emoore8/Desktop/m21_vsl-main/subject-210.csv","xpyriment","Lentiform Loewenfeld","3.3.11","0","/","NA","NA","NA","NA","space","/","528","NA","NA","NA","NA","117780","528","2","legacy","1024","2","48000","-16","AB_m21","210","even","CW_L","DREAMER","1613","442898","441202","437890","119559","NA","NA","NA","NA","NA","441702","NA","NA","NA","440702","NA","440678","1778","443148","NA","NA","NA","441743","1613","1765","NA","NA","442271","442295","440678","441702","441723","morph21_Oliver/Morris","42","70119","73","yes","1920","12"
"300","","56.75675675675676","56.75675675675676","963.7702702702703","963.7702702702703","black","no","xpyriment","legacy","legacy","0","206","NA","uniform","NA","NA","NA","0","undefined","0","0","73","73","73","0","73","73","73","NA","0","73","NA","NA","0","73","NA","73","0","73","NA","NA","NA","73","0","0","NA","NA","73","73","73","73","73","74","z","Tue Jun 27 13:21:10 2023","Executes Python code","yes","m21-ba-lexicalDecision.osexp","C:\Users\emoore8\Desktop\m21_vsl-main","no","mono","no","18","no","white","no","yes","1080","legacy","73","73","C:/Users/emoore8/Desktop/m21_vsl-main/subject-210.csv","xpyriment","Lentiform Loewenfeld","3.3.11","0","None","NA","NA","NA","NA","space","None","1200","NA","NA","NA","NA","117780","1200","2","legacy","1024","2","48000","-16","AB_m21","210","even","NW_L_SIMP","BANDARY","1613","447023","444657","437890","119559","NA","NA","NA","NA","NA","445157","NA","NA","NA","444155","NA","444129","1778","447323","NA","NA","NA","445197","1613","1765","NA","NA","446397","446420","444129","445157","445177","morph21_Oliver/Morris","42","71319","74","yes","1920","3"
"200","","57.333333333333336","57.333333333333336","963.56","963.56","black","no","xpyriment","legacy","legacy","0","202","NA","uniform","NA","NA","NA","undefined","undefined","1","0","74","74","74","0","74","74","74","NA","0","74","NA","NA","0","74","NA","74","0","74","NA","NA","NA","74","0","0","NA","NA","74","74","74","74","74","75","/","Tue Jun 27 13:21:10 2023","Executes Python code","yes","m21-ba-lexicalDecision.osexp","C:\Users\emoore8\Desktop\m21_vsl-main","no","mono","no","18","no","white","no","yes","1080","legacy","74","74","C:/Users/emoore8/Desktop/m21_vsl-main/subject-210.csv","xpyriment","Lentiform Loewenfeld","3.3.11","0","space","space","NA","NA","NA","space","/","9197","9197","NA","NA","NA","117780","948","2","legacy","1024","2","48000","-16","AB_m21","210","even","CW_L","BOOTLESS","1613","452454","448829","450948","119559","452658","NA","NA","NA","NA","449330","NA","NA","NA","448329","NA","448305","1778","461855","NA","NA","NA","449370","1613","1765","NA","NA","450319","450344","448305","449330","449350","morph21_Oliver/Morris","43","72267","75","yes","1920","32"
"400","","56.578947368421055","56.578947368421055","966.671052631579","966.671052631579","black","no","xpyriment","legacy","legacy","0","201","NA","uniform","NA","NA","NA","0","undefined","0","0","75","75","75","0","75","75","75","NA","0","75","NA","NA","0","75","NA","75","0","75","NA","NA","NA","75","0","0","NA","NA","75","75","75","75","75","76","/","Tue Jun 27 13:21:10 2023","Executes Python code","yes","m21-ba-lexicalDecision.osexp","C:\Users\emoore8\Desktop\m21_vsl-main","no","mono","no","18","no","white","no","yes","1080","legacy","75","75","C:/Users/emoore8/Desktop/m21_vsl-main/subject-210.csv","xpyriment","Lentiform Loewenfeld","3.3.11","0","None","space","NA","NA","NA","space","None","1200","9197","NA","NA","NA","117780","1200","2","legacy","1024","2","48000","-16","AB_m21","210","even","CW_S","WIDOWED","1613","465756","463389","450948","119559","452658","NA","NA","NA","NA","463889","NA","NA","NA","462888","NA","462859","1778","466156","NA","NA","NA","463930","1613","1765","NA","NA","465130","465153","462859","463889","463910","morph21_Oliver/Morris","43","73467","76","yes","1920","7"
"300","","57.142857142857146","57.142857142857146","964.7922077922078","964.7922077922078","black","no","xpyriment","legacy","legacy","0","208","NA","uniform","NA","NA","NA","1","undefined","1","0","76","76","76","0","76","76","76","NA","0","76","NA","NA","0","76","NA","76","0","76","NA","NA","NA","76","0","0","NA","NA","76","76","76","76","76","77","z","Tue Jun 27 13:21:10 2023","Executes Python code","yes","m21-ba-lexicalDecision.osexp","C:\Users\emoore8\Desktop\m21_vsl-main","no","mono","no","18","no","white","no","yes","1080","legacy","76","76","C:/Users/emoore8/Desktop/m21_vsl-main/subject-210.csv","xpyriment","Lentiform Loewenfeld","3.3.11","0","z","space","NA","NA","NA","space","z","822","9197","NA","NA","NA","117780","822","2","legacy","1024","2","48000","-16","AB_m21","210","even","FILL_NW","TREMP","1613","469666","467674","450948","119559","452658","NA","NA","NA","NA","468176","NA","NA","NA","467173","NA","467140","1778","469966","NA","NA","NA","468217","1613","1765","NA","NA","469039","469063","467140","468176","468197","morph21_Oliver/Morris","44","74289","77","yes","1920","20"
"300","","57.69230769230769","57.69230769230769","960.5769230769231","960.5769230769231","black","no","xpyriment","legacy","legacy","0","207","NA","uniform","NA","NA","NA","1","undefined","1","0","77","77","77","0","77","77","77","NA","0","77","NA","NA","0","77","NA","77","0","77","NA","NA","NA","77","0","0","NA","NA","77","77","77","77","77","78","/","Tue Jun 27 13:21:10 2023","Executes Python code","yes","m21-ba-lexicalDecision.osexp","C:\Users\emoore8\Desktop\m21_vsl-main","no","mono","no","18","no","white","no","yes","1080","legacy","77","77","C:/Users/emoore8/Desktop/m21_vsl-main/subject-210.csv","xpyriment","Lentiform Loewenfeld","3.3.11","0","/","space","NA","NA","NA","space","/","636","9197","NA","NA","NA","117780","636","2","legacy","1024","2","48000","-16","AB_m21","210","even","FILL_W","BOX","1613","474779","471471","473275","119559","452658","NA","NA","NA","NA","471971","NA","NA","NA","470971","NA","470948","1778","475079","NA","NA","NA","472011","1613","1765","NA","NA","472648","472671","470948","471971","471991","morph21_Oliver/Morris","45","74925","78","yes","1920","42"
"300","","58.22784810126582","58.22784810126582","956.126582278481","956.126582278481","black","no","xpyriment","legacy","legacy","0","202","NA","uniform","NA","NA","NA","1","undefined","1","0","78","78","78","0","78","78","78","NA","0","78","NA","NA","0","78","NA","78","0","78","NA","NA","NA","78","0","0","NA","NA","78","78","78","78","78","79","/","Tue Jun 27 13:21:10 2023","Executes Python code","yes","m21-ba-lexicalDecision.osexp","C:\Users\emoore8\Desktop\m21_vsl-main","no","mono","no","18","no","white","no","yes","1080","legacy","78","78","C:/Users/emoore8/Desktop/m21_vsl-main/subject-210.csv","xpyriment","Lentiform Loewenfeld","3.3.11","0","/","space","NA","NA","NA","space","/","609","9197","NA","NA","NA","117780","609","2","legacy","1024","2","48000","-16","AB_m21","210","even","CW_L","HEATER","1613","478371","476593","473275","119559","452658","NA","NA","NA","NA","477093","NA","NA","NA","476093","NA","476065","1778","478672","NA","NA","NA","477134","1613","1765","NA","NA","477744","477767","476065","477093","477114","morph21_Oliver/Morris","46","75534","79","yes","1920","16"
"350","","58.75","58.75","953.1125","953.1125","black","no","xpyriment","legacy","legacy","0","207","NA","uniform","NA","NA","NA","1","undefined","1","0","79","79","79","0","79","79","79","NA","0","79","NA","NA","0","79","NA","79","0","79","NA","NA","NA","79","0","0","NA","NA","79","79","79","79","79","80","/","Tue Jun 27 13:21:10 2023","Executes Python code","yes","m21-ba-lexicalDecision.osexp","C:\Users\emoore8\Desktop\m21_vsl-main","no","mono","no","18","no","white","no","yes","1080","legacy","79","79","C:/Users/emoore8/Desktop/m21_vsl-main/subject-210.csv","xpyriment","Lentiform Loewenfeld","3.3.11","0","/","space","NA","NA","NA","space","/","715","9197","NA","NA","NA","117780","715","2","legacy","1024","2","48000","-16","AB_m21","210","even","FILL_W","LEAK","1613","482050","480166","473275","119559","452658","NA","NA","NA","NA","480666","NA","NA","NA","479666","NA","479643","1778","482400","NA","NA","NA","480707","1613","1765","NA","NA","481423","481447","479643","480666","480687","morph21_Oliver/Morris","47","76249","80","yes","1920","9"
"300","","58.02469135802469","58.02469135802469","956.1604938271605","956.1604938271605","black","no","xpyriment","legacy","legacy","0","205","NA","uniform","NA","NA","NA","0","undefined","0","0","80","80","80","0","80","80","80","NA","0","80","NA","NA","0","80","NA","80","0","80","NA","NA","NA","80","0","0","NA","NA","80","80","80","80","80","81","z","Tue Jun 27 13:21:10 2023","Executes Python code","yes","m21-ba-lexicalDecision.osexp","C:\Users\emoore8\Desktop\m21_vsl-main","no","mono","no","18","no","white","no","yes","1080","legacy","80","80","C:/Users/emoore8/Desktop/m21_vsl-main/subject-210.csv","xpyriment","Lentiform Loewenfeld","3.3.11","0","None","space","NA","NA","NA","space","None","1200","9197","NA","NA","NA","117780","1200","2","legacy","1024","2","48000","-16","AB_m21","210","even","NW_S_SIMP","YIELDIST","1613","487767","483895","486262","119559","452658","NA","NA","NA","NA","484395","NA","NA","NA","483395","NA","483368","1778","488067","NA","NA","NA","484435","1613","1765","NA","NA","485635","485659","483368","484395","484415","morph21_Oliver/Morris","47","77449","81","yes","1920","20"
"250","","58.53658536585366","58.53658536585366","953.9756097560976","953.9756097560976","black","no","xpyriment","legacy","legacy","0","201","NA","uniform","NA","NA","NA","1","undefined","1","0","81","81","81","0","81","81","81","NA","0","81","NA","NA","0","81","NA","81","0","81","NA","NA","NA","81","0","0","NA","NA","81","81","81","81","81","82","/","Tue Jun 27 13:21:10 2023","Executes Python code","yes","m21-ba-lexicalDecision.osexp","C:\Users\emoore8\Desktop\m21_vsl-main","no","mono","no","18","no","white","no","yes","1080","legacy","81","81","C:/Users/emoore8/Desktop/m21_vsl-main/subject-210.csv","xpyriment","Lentiform Loewenfeld","3.3.11","0","/","space","NA","NA","NA","space","/","777","9197","NA","NA","NA","117780","777","2","legacy","1024","2","48000","-16","AB_m21","210","even","CW_S","PLANNER","1613","491530","489583","486262","119559","452658","NA","NA","NA","NA","490084","NA","NA","NA","489082","NA","489056","1778","491780","NA","NA","NA","490125","1613","1765","NA","NA","490903","490927","489056","490084","490105","morph21_Oliver/Morris","48","78226","82","yes","1920","22"
"250","","59.036144578313255","59.036144578313255","953.4939759036145","953.4939759036145","black","no","xpyriment","legacy","legacy","0","206","NA","uniform","NA","NA","NA","1","undefined","1","0","82","82","82","0","82","82","82","NA","0","82","NA","NA","0","82","NA","82","0","82","NA","NA","NA","82","0","0","NA","NA","82","82","82","82","82","83","z","Tue Jun 27 13:21:10 2023","Executes Python code","yes","m21-ba-lexicalDecision.osexp","C:\Users\emoore8\Desktop\m21_vsl-main","no","mono","no","18","no","white","no","yes","1080","legacy","82","82","C:/Users/emoore8/Desktop/m21_vsl-main/subject-210.csv","xpyriment","Lentiform Loewenfeld","3.3.11","0","z","space","NA","NA","NA","space","z","914","9197","NA","NA","NA","117780","914","2","legacy","1024","2","48000","-16","AB_m21","210","even","NW_L_SIMP"," DRESSORY","1613","495371","493286","486262","119559","452658","NA","NA","NA","NA","493786","NA","NA","NA","492785","NA","492760","1778","495621","NA","NA","NA","493828","1613","1765","NA","NA","494743","494767","492760","493786","493807","morph21_Oliver/Morris","49","79140","83","yes","1920","21"
"350","","59.523809523809526","59.523809523809526","950.2142857142857","950.2142857142857","black","no","xpyriment","legacy","legacy","0","201","NA","uniform","NA","NA","NA","1","undefined","1","0","83","83","83","0","83","83","83","NA","0","83","NA","NA","0","83","NA","83","0","83","NA","NA","NA","83","0","0","NA","NA","83","83","83","83","83","84","/","Tue Jun 27 13:21:10 2023","Executes Python code","yes","m21-ba-lexicalDecision.osexp","C:\Users\emoore8\Desktop\m21_vsl-main","no","mono","no","18","no","white","no","yes","1080","legacy","83","83","C:/Users/emoore8/Desktop/m21_vsl-main/subject-210.csv","xpyriment","Lentiform Loewenfeld","3.3.11","0","/","space","NA","NA","NA","space","/","678","9197","NA","NA","NA","117780","678","2","legacy","1024","2","48000","-16","AB_m21","210","even","CW_S","BOSSY","1613","500465","497116","498962","119559","452658","NA","NA","NA","NA","497616","NA","NA","NA","496616","NA","496590","1778","500815","NA","NA","NA","497657","1613","1765","NA","NA","498336","498359","496590","497616","497637","morph21_Oliver/Morris","50","79818","84","yes","1920","49"
"350","","58.8235294117647","58.8235294117647","953.1529411764706","953.1529411764706","black","no","xpyriment","legacy","legacy","0","203","NA","uniform","NA","NA","NA","0","undefined","0","0","84","84","84","0","84","84","84","NA","0","84","NA","NA","0","84","NA","84","0","84","NA","NA","NA","84","0","0","NA","NA","84","84","84","84","84","85","z","Tue Jun 27 13:21:10 2023","Executes Python code","yes","m21-ba-lexicalDecision.osexp","C:\Users\emoore8\Desktop\m21_vsl-main","no","mono","no","18","no","white","no","yes","1080","legacy","84","84","C:/Users/emoore8/Desktop/m21_vsl-main/subject-210.csv","xpyriment","Lentiform Loewenfeld","3.3.11","0","None","space","NA","NA","NA","space","None","1200","9197","NA","NA","NA","117780","1200","2","legacy","1024","2","48000","-16","AB_m21","210","even","NW_S_COMP","DEBTITH","1613","504708","502339","498962","119559","452658","NA","NA","NA","NA","502840","NA","NA","NA","501839","NA","501808","1778","505058","NA","NA","NA","502881","1613","1765","NA","NA","504081","504104","501808","502840","502861","morph21_Oliver/Morris","50","81018","85","yes","1920","22"
"400","","59.30232558139535","59.30232558139535","949.0232558139535","949.0232558139535","black","no","xpyriment","legacy","legacy","0","202","NA","uniform","NA","NA","NA","1","undefined","1","0","85","85","85","0","85","85","85","NA","0","85","NA","NA","0","85","NA","85","0","85","NA","NA","NA","85","0","0","NA","NA","85","85","85","85","85","86","/","Tue Jun 27 13:21:10 2023","Executes Python code","yes","m21-ba-lexicalDecision.osexp","C:\Users\emoore8\Desktop\m21_vsl-main","no","mono","no","18","no","white","no","yes","1080","legacy","85","85","C:/Users/emoore8/Desktop/m21_vsl-main/subject-210.csv","xpyriment","Lentiform Loewenfeld","3.3.11","0","/","space","NA","NA","NA","space","/","598","9197","NA","NA","NA","117780","598","2","legacy","1024","2","48000","-16","AB_m21","210","even","CW_L","LOCKER","1613","508332","506564","498962","119559","452658","NA","NA","NA","NA","507065","NA","NA","NA","506064","NA","506037","1778","508732","NA","NA","NA","507105","1613","1765","NA","NA","507704","507728","506036","507064","507085","morph21_Oliver/Morris","51","81616","86","yes","1920","8"
"400","","59.770114942528735","59.770114942528735","945.6551724137931","945.6551724137931","black","no","xpyriment","legacy","legacy","0","202","NA","uniform","NA","NA","NA","1","undefined","1","0","86","86","86","0","86","86","86","NA","0","86","NA","NA","0","86","NA","86","0","86","NA","NA","NA","86","0","0","NA","NA","86","86","86","86","86","87","/","Tue Jun 27 13:21:10 2023","Executes Python code","yes","m21-ba-lexicalDecision.osexp","C:\Users\emoore8\Desktop\m21_vsl-main","no","mono","no","18","no","white","no","yes","1080","legacy","86","86","C:/Users/emoore8/Desktop/m21_vsl-main/subject-210.csv","xpyriment","Lentiform Loewenfeld","3.3.11","0","/","space","NA","NA","NA","space","/","656","9197","NA","NA","NA","117780","656","2","legacy","1024","2","48000","-16","AB_m21","210","even","CW_L","QUIETLY","1613","513689","510362","512186","119559","452658","NA","NA","NA","NA","510862","NA","NA","NA","509862","NA","509834","1778","514089","NA","NA","NA","510903","1613","1765","NA","NA","511559","511583","509834","510862","510883","morph21_Oliver/Morris","52","82272","87","yes","1920","36"
"350","","60.22727272727273","60.22727272727273","946.3636363636364","946.3636363636364","black","no","xpyriment","legacy","legacy","0","208","NA","uniform","NA","NA","NA","1","undefined","1","0","87","87","87","0","87","87","87","NA","0","87","NA","NA","0","87","NA","87","0","87","NA","NA","NA","87","0","0","NA","NA","87","87","87","87","87","88","z","Tue Jun 27 13:21:10 2023","Executes Python code","yes","m21-ba-lexicalDecision.osexp","C:\Users\emoore8\Desktop\m21_vsl-main","no","mono","no","18","no","white","no","yes","1080","legacy","87","87","C:/Users/emoore8/Desktop/m21_vsl-main/subject-210.csv","xpyriment","Lentiform Loewenfeld","3.3.11","0","z","space","NA","NA","NA","space","z","1008","9197","NA","NA","NA","117780","1008","2","legacy","1024","2","48000","-16","AB_m21","210","even","FILL_NW","DELP","1613","517762","515586","512186","119559","452658","NA","NA","NA","NA","516086","NA","NA","NA","515086","NA","515058","1778","518112","NA","NA","NA","516126","1613","1765","NA","NA","517135","517159","515058","516086","516106","morph21_Oliver/Morris","53","83280","88","yes","1920","14"
"350","","59.550561797752806","59.550561797752806","949.2134831460675","949.2134831460675","black","no","xpyriment","legacy","legacy","0","207","NA","uniform","NA","NA","NA","0","undefined","0","0","88","88","88","0","88","88","88","NA","0","88","NA","NA","0","88","NA","88","0","88","NA","NA","NA","88","0","0","NA","NA","88","88","88","88","88","89","/","Tue Jun 27 13:21:10 2023","Executes Python code","yes","m21-ba-lexicalDecision.osexp","C:\Users\emoore8\Desktop\m21_vsl-main","no","mono","no","18","no","white","no","yes","1080","legacy","88","88","C:/Users/emoore8/Desktop/m21_vsl-main/subject-210.csv","xpyriment","Lentiform Loewenfeld","3.3.11","0","None","space","NA","NA","NA","space","None","1200","9197","NA","NA","NA","117780","1200","2","legacy","1024","2","48000","-16","AB_m21","210","even","FILL_W","FOLLOW","1613","521998","519631","512186","119559","452658","NA","NA","NA","NA","520131","NA","NA","NA","519131","NA","519107","1778","522348","NA","NA","NA","520171","1613","1765","NA","NA","521371","521395","519107","520131","520151","morph21_Oliver/Morris","53","84480","89","yes","1920","17"
