"ITI","_prepare","acc","accuracy","average_response_time","avg_rt","background","bidi","canvas_backend","clock_backend","color_backend","compensation","cond_trig","condtrigtime","coordinates","coroutines_cycles","coroutines_duration","coroutines_mean_cycle_duration","correct","correct_instructions_1","correct_new_keyboard_response_1","count_AB_m21","count_ITI","count_blank_screen","count_blink_screen","count_block1","count_break1","count_break2","count_break3_1","count_canvas","count_close_port","count_cond_trigger","count_correct_trigger","count_def_chain","count_end_screen","count_fixation_1","count_getting_started","count_inc_counter","count_instructions_1","count_logger","count_logscript","count_new_inline_script","count_new_inline_script_2","count_new_keyboard_response_1","count_open_port","count_reset_counter_prep","count_reset_counter_run","count_reset_counter_run_1","count_response_trigger_trial","count_responsescreen","count_sequence","count_target_present","count_word_trigger","counter","cresp","datetime","description","disable_garbage_collection","experiment_file","experiment_path","font_bold","font_family","font_italic","font_size","font_underline","foreground","form_clicks","fullscreen","height","keyboard_backend","live_row","live_row_block1","logfile","mouse_backend","opensesame_codename","opensesame_version","repeat_cycle","response","response_break1","response_break2","response_break3_1","response_end_screen","response_instructions_1","response_new_keyboard_response_1","response_time","response_time_break1","response_time_break2","response_time_break3_1","response_time_end_screen","response_time_instructions_1","response_time_new_keyboard_response_1","round_decimals","sampler_backend","sound_buf_size","sound_channels","sound_freq","sound_sample_size","start","subject_nr","subject_parity","targ_type","target","time_AB_m21","time_ITI","time_blank_screen","time_blink_screen","time_block1","time_break1","time_break2","time_break3_1","time_canvas","time_close_port","time_cond_trigger","time_correct_trigger","time_def_chain","time_end_screen","time_fixation_1","time_getting_started","time_inc_counter","time_instructions_1","time_logger","time_logscript","time_new_inline_script","time_new_inline_script_2","time_new_keyboard_response_1","time_open_port","time_reset_counter_prep","time_reset_counter_run","time_reset_counter_run_1","time_response_trigger_trial","time_responsescreen","time_sequence","time_target_present","time_word_trigger","title","total_correct","total_response_time","total_responses","uniform_coordinates","width","word_trig"
"400","","0","0","1200","1200","black","no","xpyriment","legacy","legacy","0","202","NA","uniform","NA","NA","NA","0","undefined","0","0","0","0","0","0","0","0","0","NA","0","0","NA","NA","0","0","NA","0","0","0","NA","NA","NA","0","0","0","NA","NA","0","0","0","0","0","1","/","Thu Dec  7 15:15:22 2023","Executes Python code","yes","m21-ba-lexicalDecision.osexp","C:\Users\ekealey\Desktop","no","mono","no","18","no","white","no","yes","1080","legacy","0","0","C:/Users/ekealey/Desktop/subject-232.csv","xpyriment","Lentiform Loewenfeld","3.3.11","0","None","NA","NA","NA","NA","space","None","1200","NA","NA","NA","NA","51824","1200","2","legacy","1024","2","48000","-16","AB_m21","232","even","CW_L","STYLISH","1690","58016","55648","NA","53682","NA","NA","NA","NA","NA","56148","NA","NA","NA","55146","NA","55113","1857","58416","NA","NA","NA","56189","1690","1845","NA","NA","57389","57413","55113","56148","56169","morph21_Oliver/Morris","0","1200","1","yes","1920","29"
"350","","50","50","971.5","971.5","black","no","xpyriment","legacy","legacy","0","208","NA","uniform","NA","NA","NA","1","undefined","1","0","1","1","1","0","1","1","1","NA","0","1","NA","NA","0","1","NA","1","0","1","NA","NA","NA","1","0","0","NA","NA","1","1","1","1","1","2","z","Thu Dec  7 15:15:22 2023","Executes Python code","yes","m21-ba-lexicalDecision.osexp","C:\Users\ekealey\Desktop","no","mono","no","18","no","white","no","yes","1080","legacy","1","1","C:/Users/ekealey/Desktop/subject-232.csv","xpyriment","Lentiform Loewenfeld","3.3.11","0","z","NA","NA","NA","NA","space","z","743","NA","NA","NA","NA","51824","743","2","legacy","1024","2","48000","-16","AB_m21","232","even","FILL_NW","BLANTH","1690","61923","60012","NA","53682","NA","NA","NA","NA","NA","60512","NA","NA","NA","59512","NA","59484","1857","62273","NA","NA","NA","60553","1690","1845","NA","NA","61297","61320","59484","60512","60533","morph21_Oliver/Morris","1","1943","2","yes","1920","3"
"250","","66.66666666666667","66.66666666666667","981","981","black","no","xpyriment","legacy","legacy","0","201","NA","uniform","NA","NA","NA","1","undefined","1","0","2","2","2","0","2","2","2","NA","0","2","NA","NA","0","2","NA","2","0","2","NA","NA","NA","2","0","0","NA","NA","2","2","2","2","2","3","/","Thu Dec  7 15:15:22 2023","Executes Python code","yes","m21-ba-lexicalDecision.osexp","C:\Users\ekealey\Desktop","no","mono","no","18","no","white","no","yes","1080","legacy","2","2","C:/Users/ekealey/Desktop/subject-232.csv","xpyriment","Lentiform Loewenfeld","3.3.11","0","/","NA","NA","NA","NA","space","/","1000","NA","NA","NA","NA","51824","1000","2","legacy","1024","2","48000","-16","AB_m21","232","even","CW_S","MOSSY","1690","67563","63891","66059","53682","NA","NA","NA","NA","NA","64391","NA","NA","NA","63391","NA","63362","1857","67813","NA","NA","NA","64432","1690","1845","NA","NA","65433","65456","63362","64391","64412","morph21_Oliver/Morris","2","2943","3","yes","1920","47"
"400","","75","75","887","887","black","no","xpyriment","legacy","legacy","0","207","NA","uniform","NA","NA","NA","1","undefined","1","0","3","3","3","0","3","3","3","NA","0","3","NA","NA","0","3","NA","3","0","3","NA","NA","NA","3","0","0","NA","NA","3","3","3","3","3","4","/","Thu Dec  7 15:15:22 2023","Executes Python code","yes","m21-ba-lexicalDecision.osexp","C:\Users\ekealey\Desktop","no","mono","no","18","no","white","no","yes","1080","legacy","3","3","C:/Users/ekealey/Desktop/subject-232.csv","xpyriment","Lentiform Loewenfeld","3.3.11","0","/","NA","NA","NA","NA","space","/","605","NA","NA","NA","NA","51824","605","2","legacy","1024","2","48000","-16","AB_m21","232","even","FILL_W","DRUNK","1690","71173","69400","66059","53682","NA","NA","NA","NA","NA","69900","NA","NA","NA","68900","NA","68875","1857","71573","NA","NA","NA","69940","1690","1845","NA","NA","70545","70568","68875","69900","69920","morph21_Oliver/Morris","3","3548","4","yes","1920","19"
"400","","80","80","922","922","black","no","xpyriment","legacy","legacy","0","204","NA","uniform","NA","NA","NA","1","undefined","1","0","4","4","4","0","4","4","4","NA","0","4","NA","NA","0","4","NA","4","0","4","NA","NA","NA","4","0","0","NA","NA","4","4","4","4","4","5","z","Thu Dec  7 15:15:22 2023","Executes Python code","yes","m21-ba-lexicalDecision.osexp","C:\Users\ekealey\Desktop","no","mono","no","18","no","white","no","yes","1080","legacy","4","4","C:/Users/ekealey/Desktop/subject-232.csv","xpyriment","Lentiform Loewenfeld","3.3.11","0","z","NA","NA","NA","NA","space","z","1062","NA","NA","NA","NA","51824","1062","2","legacy","1024","2","48000","-16","AB_m21","232","even","NW_L_COMP","FLITENGE","1690","75396","73165","66059","53682","NA","NA","NA","NA","NA","73665","NA","NA","NA","72665","NA","72640","1857","75796","NA","NA","NA","73706","1690","1845","NA","NA","74769","74793","72640","73665","73686","morph21_Oliver/Morris","4","4610","5","yes","1920","3"
"250","","83.33333333333333","83.33333333333333","921.8333333333334","921.8333333333334","black","no","xpyriment","legacy","legacy","0","208","NA","uniform","NA","NA","NA","1","undefined","1","0","5","5","5","0","5","5","5","NA","0","5","NA","NA","0","5","NA","5","0","5","NA","NA","NA","5","0","0","NA","NA","5","5","5","5","5","6","z","Thu Dec  7 15:15:22 2023","Executes Python code","yes","m21-ba-lexicalDecision.osexp","C:\Users\ekealey\Desktop","no","mono","no","18","no","white","no","yes","1080","legacy","5","5","C:/Users/ekealey/Desktop/subject-232.csv","xpyriment","Lentiform Loewenfeld","3.3.11","0","z","NA","NA","NA","NA","space","z","921","NA","NA","NA","NA","51824","921","2","legacy","1024","2","48000","-16","AB_m21","232","even","FILL_NW","BUWL","1690","80988","77393","79484","53682","NA","NA","NA","NA","NA","77894","NA","NA","NA","76892","NA","76864","1857","81238","NA","NA","NA","77935","1690","1845","NA","NA","78856","78880","76864","77894","77915","morph21_Oliver/Morris","5","5531","6","yes","1920","9"
"350","","85.71428571428571","85.71428571428571","879.7142857142857","879.7142857142857","black","no","xpyriment","legacy","legacy","0","202","NA","uniform","NA","NA","NA","1","undefined","1","0","6","6","6","0","6","6","6","NA","0","6","NA","NA","0","6","NA","6","0","6","NA","NA","NA","6","0","0","NA","NA","6","6","6","6","6","7","/","Thu Dec  7 15:15:22 2023","Executes Python code","yes","m21-ba-lexicalDecision.osexp","C:\Users\ekealey\Desktop","no","mono","no","18","no","white","no","yes","1080","legacy","6","6","C:/Users/ekealey/Desktop/subject-232.csv","xpyriment","Lentiform Loewenfeld","3.3.11","0","/","NA","NA","NA","NA","space","/","627","NA","NA","NA","NA","51824","627","2","legacy","1024","2","48000","-16","AB_m21","232","even","CW_L","HUNTER","1690","84672","82871","79484","53682","NA","NA","NA","NA","NA","83372","NA","NA","NA","82369","NA","82344","1857","85022","NA","NA","NA","83413","1690","1845","NA","NA","84041","84065","82344","83372","83393","morph21_Oliver/Morris","6","6158","7","yes","1920","10"
"400","","87.5","87.5","835.5","835.5","black","no","xpyriment","legacy","legacy","0","202","NA","uniform","NA","NA","NA","1","undefined","1","0","7","7","7","0","7","7","7","NA","0","7","NA","NA","0","7","NA","7","0","7","NA","NA","NA","7","0","0","NA","NA","7","7","7","7","7","8","/","Thu Dec  7 15:15:22 2023","Executes Python code","yes","m21-ba-lexicalDecision.osexp","C:\Users\ekealey\Desktop","no","mono","no","18","no","white","no","yes","1080","legacy","7","7","C:/Users/ekealey/Desktop/subject-232.csv","xpyriment","Lentiform Loewenfeld","3.3.11","0","/","NA","NA","NA","NA","space","/","526","NA","NA","NA","NA","51824","526","2","legacy","1024","2","48000","-16","AB_m21","232","even","CW_L","CLEANER","1690","88310","86613","79484","53682","NA","NA","NA","NA","NA","87114","NA","NA","NA","86112","NA","86085","1857","88710","NA","NA","NA","87154","1690","1845","NA","NA","87681","87705","86085","87113","87134","morph21_Oliver/Morris","7","6684","8","yes","1920","15"
"300","","77.77777777777777","77.77777777777777","852.6666666666666","852.6666666666666","black","no","xpyriment","legacy","legacy","0","206","NA","uniform","NA","NA","NA","0","undefined","0","0","8","8","8","0","8","8","8","NA","0","8","NA","NA","0","8","NA","8","0","8","NA","NA","NA","8","0","0","NA","NA","8","8","8","8","8","9","z","Thu Dec  7 15:15:22 2023","Executes Python code","yes","m21-ba-lexicalDecision.osexp","C:\Users\ekealey\Desktop","no","mono","no","18","no","white","no","yes","1080","legacy","8","8","C:/Users/ekealey/Desktop/subject-232.csv","xpyriment","Lentiform Loewenfeld","3.3.11","0","/","NA","NA","NA","NA","space","/","990","NA","NA","NA","NA","51824","990","2","legacy","1024","2","48000","-16","AB_m21","232","even","NW_L_SIMP","ELBOWISM","1690","93963","90301","92459","53682","NA","NA","NA","NA","NA","90802","NA","NA","NA","89799","NA","89774","1857","94264","NA","NA","NA","90842","1690","1845","NA","NA","91832","91856","89774","90802","90822","morph21_Oliver/Morris","7","7674","9","yes","1920","10"
"400","","80","80","833.5","833.5","black","no","xpyriment","legacy","legacy","0","208","NA","uniform","NA","NA","NA","1","undefined","1","0","9","9","9","0","9","9","9","NA","0","9","NA","NA","0","9","NA","9","0","9","NA","NA","NA","9","0","0","NA","NA","9","9","9","9","9","10","z","Thu Dec  7 15:15:22 2023","Executes Python code","yes","m21-ba-lexicalDecision.osexp","C:\Users\ekealey\Desktop","no","mono","no","18","no","white","no","yes","1080","legacy","9","9","C:/Users/ekealey/Desktop/subject-232.csv","xpyriment","Lentiform Loewenfeld","3.3.11","0","z","NA","NA","NA","NA","space","z","661","NA","NA","NA","NA","51824","661","2","legacy","1024","2","48000","-16","AB_m21","232","even","FILL_NW","GIKE","1690","97691","95862","92459","53682","NA","NA","NA","NA","NA","96362","NA","NA","NA","95362","NA","95333","1857","98091","NA","NA","NA","96403","1690","1845","NA","NA","97065","97088","95333","96362","96383","morph21_Oliver/Morris","8","8335","10","yes","1920","24"
"400","","81.81818181818181","81.81818181818181","800.1818181818181","800.1818181818181","black","no","xpyriment","legacy","legacy","0","202","NA","uniform","NA","NA","NA","1","undefined","1","0","10","10","10","0","10","10","10","NA","0","10","NA","NA","0","10","NA","10","0","10","NA","NA","NA","10","0","0","NA","NA","10","10","10","10","10","11","/","Thu Dec  7 15:15:22 2023","Executes Python code","yes","m21-ba-lexicalDecision.osexp","C:\Users\ekealey\Desktop","no","mono","no","18","no","white","no","yes","1080","legacy","10","10","C:/Users/ekealey/Desktop/subject-232.csv","xpyriment","Lentiform Loewenfeld","3.3.11","0","/","NA","NA","NA","NA","space","/","467","NA","NA","NA","NA","51824","467","2","legacy","1024","2","48000","-16","AB_m21","232","even","CW_L","SHAPELY","1690","101335","99696","92459","53682","NA","NA","NA","NA","NA","100196","NA","NA","NA","99195","NA","99169","1857","101735","NA","NA","NA","100237","1690","1845","NA","NA","100705","100729","99169","100196","100217","morph21_Oliver/Morris","9","8802","11","yes","1920","35"
"250","","83.33333333333333","83.33333333333333","778.6666666666666","778.6666666666666","black","no","xpyriment","legacy","legacy","0","207","NA","uniform","NA","NA","NA","1","undefined","1","0","11","11","11","0","11","11","11","NA","0","11","NA","NA","0","11","NA","11","0","11","NA","NA","NA","11","0","0","NA","NA","11","11","11","11","11","12","/","Thu Dec  7 15:15:22 2023","Executes Python code","yes","m21-ba-lexicalDecision.osexp","C:\Users\ekealey\Desktop","no","mono","no","18","no","white","no","yes","1080","legacy","11","11","C:/Users/ekealey/Desktop/subject-232.csv","xpyriment","Lentiform Loewenfeld","3.3.11","0","/","NA","NA","NA","NA","space","/","542","NA","NA","NA","NA","51824","542","2","legacy","1024","2","48000","-16","AB_m21","232","even","FILL_W","TASTE","1690","106522","103309","105019","53682","NA","NA","NA","NA","NA","103810","NA","NA","NA","102807","NA","102780","1857","106772","NA","NA","NA","103851","1690","1845","NA","NA","104393","104416","102780","103810","103831","morph21_Oliver/Morris","10","9344","12","yes","1920","34"
"300","","84.61538461538461","84.61538461538461","784.1538461538462","784.1538461538462","black","no","xpyriment","legacy","legacy","0","202","NA","uniform","NA","NA","NA","1","undefined","1","0","12","12","12","0","12","12","12","NA","0","12","NA","NA","0","12","NA","12","0","12","NA","NA","NA","12","0","0","NA","NA","12","12","12","12","12","13","/","Thu Dec  7 15:15:22 2023","Executes Python code","yes","m21-ba-lexicalDecision.osexp","C:\Users\ekealey\Desktop","no","mono","no","18","no","white","no","yes","1080","legacy","12","12","C:/Users/ekealey/Desktop/subject-232.csv","xpyriment","Lentiform Loewenfeld","3.3.11","0","/","NA","NA","NA","NA","space","/","850","NA","NA","NA","NA","51824","850","2","legacy","1024","2","48000","-16","AB_m21","232","even","CW_L","DAMPISH","1690","110375","108353","105019","53682","NA","NA","NA","NA","NA","108853","NA","NA","NA","107853","NA","107822","1857","110675","NA","NA","NA","108894","1690","1845","NA","NA","109745","109770","107822","108853","108874","morph21_Oliver/Morris","11","10194","13","yes","1920","28"
"250","","85.71428571428571","85.71428571428571","766.8571428571429","766.8571428571429","black","no","xpyriment","legacy","legacy","0","201","NA","uniform","NA","NA","NA","1","undefined","1","0","13","13","13","0","13","13","13","NA","0","13","NA","NA","0","13","NA","13","0","13","NA","NA","NA","13","0","0","NA","NA","13","13","13","13","13","14","/","Thu Dec  7 15:15:22 2023","Executes Python code","yes","m21-ba-lexicalDecision.osexp","C:\Users\ekealey\Desktop","no","mono","no","18","no","white","no","yes","1080","legacy","13","13","C:/Users/ekealey/Desktop/subject-232.csv","xpyriment","Lentiform Loewenfeld","3.3.11","0","/","NA","NA","NA","NA","space","/","542","NA","NA","NA","NA","51824","542","2","legacy","1024","2","48000","-16","AB_m21","232","even","CW_S","AWARENESS","1690","113964","112253","105019","53682","NA","NA","NA","NA","NA","112754","NA","NA","NA","111753","NA","111721","1857","114214","NA","NA","NA","112794","1690","1845","NA","NA","113337","113361","111721","112754","112774","morph21_Oliver/Morris","12","10736","14","yes","1920","44"
"200","","86.66666666666667","86.66666666666667","774.5333333333333","774.5333333333333","black","no","xpyriment","legacy","legacy","0","206","NA","uniform","NA","NA","NA","1","undefined","1","0","14","14","14","0","14","14","14","NA","0","14","NA","NA","0","14","NA","14","0","14","NA","NA","NA","14","0","0","NA","NA","14","14","14","14","14","15","z","Thu Dec  7 15:15:22 2023","Executes Python code","yes","m21-ba-lexicalDecision.osexp","C:\Users\ekealey\Desktop","no","mono","no","18","no","white","no","yes","1080","legacy","14","14","C:/Users/ekealey/Desktop/subject-232.csv","xpyriment","Lentiform Loewenfeld","3.3.11","0","z","NA","NA","NA","NA","space","z","882","NA","NA","NA","NA","51824","882","2","legacy","1024","2","48000","-16","AB_m21","232","even","NW_L_SIMP","TOWERLY","1690","119349","115792","117844","53682","NA","NA","NA","NA","NA","116293","NA","NA","NA","115290","NA","115261","1857","119549","NA","NA","NA","116334","1690","1845","NA","NA","117217","117241","115261","116293","116314","morph21_Oliver/Morris","13","11618","15","yes","1920","15"
"400","","87.5","87.5","799.4375","799.4375","black","no","xpyriment","legacy","legacy","0","205","NA","uniform","NA","NA","NA","1","undefined","1","0","15","15","15","0","15","15","15","NA","0","15","NA","NA","0","15","NA","15","0","15","NA","NA","NA","15","0","0","NA","NA","15","15","15","15","15","16","z","Thu Dec  7 15:15:22 2023","Executes Python code","yes","m21-ba-lexicalDecision.osexp","C:\Users\ekealey\Desktop","no","mono","no","18","no","white","no","yes","1080","legacy","15","15","C:/Users/ekealey/Desktop/subject-232.csv","xpyriment","Lentiform Loewenfeld","3.3.11","0","z","NA","NA","NA","NA","space","z","1173","NA","NA","NA","NA","51824","1173","2","legacy","1024","2","48000","-16","AB_m21","232","even","NW_S_SIMP","SCHEMENESS","1690","123491","121150","117844","53682","NA","NA","NA","NA","NA","121651","NA","NA","NA","120650","NA","120622","1857","123891","NA","NA","NA","121691","1690","1845","NA","NA","122865","122888","120622","121650","121671","morph21_Oliver/Morris","14","12791","16","yes","1920","15"
"200","","88.23529411764706","88.23529411764706","794.8823529411765","794.8823529411765","black","no","xpyriment","legacy","legacy","0","203","NA","uniform","NA","NA","NA","1","undefined","1","0","16","16","16","0","16","16","16","NA","0","16","NA","NA","0","16","NA","16","0","16","NA","NA","NA","16","0","0","NA","NA","16","16","16","16","16","17","z","Thu Dec  7 15:15:22 2023","Executes Python code","yes","m21-ba-lexicalDecision.osexp","C:\Users\ekealey\Desktop","no","mono","no","18","no","white","no","yes","1080","legacy","16","16","C:/Users/ekealey/Desktop/subject-232.csv","xpyriment","Lentiform Loewenfeld","3.3.11","0","z","NA","NA","NA","NA","space","z","722","NA","NA","NA","NA","51824","722","2","legacy","1024","2","48000","-16","AB_m21","232","even","NW_S_COMP","DUMBIDY","1690","127323","125434","117844","53682","NA","NA","NA","NA","NA","125934","NA","NA","NA","124934","NA","124908","1857","127523","NA","NA","NA","125974","1690","1845","NA","NA","126697","126720","124908","125934","125954","morph21_Oliver/Morris","15","13513","17","yes","1920","12"
"250","","88.88888888888889","88.88888888888889","786.6111111111111","786.6111111111111","black","no","xpyriment","legacy","legacy","0","202","NA","uniform","NA","NA","NA","1","undefined","1","0","17","17","17","0","17","17","17","NA","0","17","NA","NA","0","17","NA","17","0","17","NA","NA","NA","17","0","0","NA","NA","17","17","17","17","17","18","/","Thu Dec  7 15:15:22 2023","Executes Python code","yes","m21-ba-lexicalDecision.osexp","C:\Users\ekealey\Desktop","no","mono","no","18","no","white","no","yes","1080","legacy","17","17","C:/Users/ekealey/Desktop/subject-232.csv","xpyriment","Lentiform Loewenfeld","3.3.11","0","/","NA","NA","NA","NA","space","/","646","NA","NA","NA","NA","51824","646","2","legacy","1024","2","48000","-16","AB_m21","232","even","CW_L","STRIKER","1690","132445","129125","130941","53682","NA","NA","NA","NA","NA","129625","NA","NA","NA","128625","NA","128597","1857","132695","NA","NA","NA","129666","1690","1845","NA","NA","130312","130338","128597","129625","129646","morph21_Oliver/Morris","16","14159","18","yes","1920","17"
"400","","89.47368421052632","89.47368421052632","780.8947368421053","780.8947368421053","black","no","xpyriment","legacy","legacy","0","208","NA","uniform","NA","NA","NA","1","undefined","1","0","18","18","18","0","18","18","18","NA","0","18","NA","NA","0","18","NA","18","0","18","NA","NA","NA","18","0","0","NA","NA","18","18","18","18","18","19","z","Thu Dec  7 15:15:22 2023","Executes Python code","yes","m21-ba-lexicalDecision.osexp","C:\Users\ekealey\Desktop","no","mono","no","18","no","white","no","yes","1080","legacy","18","18","C:/Users/ekealey/Desktop/subject-232.csv","xpyriment","Lentiform Loewenfeld","3.3.11","0","z","NA","NA","NA","NA","space","z","678","NA","NA","NA","NA","51824","678","2","legacy","1024","2","48000","-16","AB_m21","232","even","FILL_NW","SOISE","1690","136148","134297","130941","53682","NA","NA","NA","NA","NA","134801","NA","NA","NA","133796","NA","133765","1857","136548","NA","NA","NA","134842","1690","1845","NA","NA","135520","135545","133765","134801","134822","morph21_Oliver/Morris","17","14837","19","yes","1920","43"
"200","","85","85","779.9","779.9","black","no","xpyriment","legacy","legacy","0","205","NA","uniform","NA","NA","NA","0","undefined","0","0","19","19","19","0","19","19","19","NA","0","19","NA","NA","0","19","NA","19","0","19","NA","NA","NA","19","0","0","NA","NA","19","19","19","19","19","20","z","Thu Dec  7 15:15:22 2023","Executes Python code","yes","m21-ba-lexicalDecision.osexp","C:\Users\ekealey\Desktop","no","mono","no","18","no","white","no","yes","1080","legacy","19","19","C:/Users/ekealey/Desktop/subject-232.csv","xpyriment","Lentiform Loewenfeld","3.3.11","0","/","NA","NA","NA","NA","space","/","761","NA","NA","NA","NA","51824","761","2","legacy","1024","2","48000","-16","AB_m21","232","even","NW_S_SIMP","NULLISH","1690","140048","138114","130941","53682","NA","NA","NA","NA","NA","138615","NA","NA","NA","137612","NA","137584","1857","140248","NA","NA","NA","138655","1690","1845","NA","NA","139416","139443","137584","138615","138635","morph21_Oliver/Morris","17","15598","20","yes","1920","23"
"300","","80.95238095238095","80.95238095238095","774.7619047619048","774.7619047619048","black","no","xpyriment","legacy","legacy","0","208","NA","uniform","NA","NA","NA","0","undefined","0","0","20","20","20","0","20","20","20","NA","0","20","NA","NA","0","20","NA","20","0","20","NA","NA","NA","20","0","0","NA","NA","20","20","20","20","20","21","z","Thu Dec  7 15:15:22 2023","Executes Python code","yes","m21-ba-lexicalDecision.osexp","C:\Users\ekealey\Desktop","no","mono","no","18","no","white","no","yes","1080","legacy","20","20","C:/Users/ekealey/Desktop/subject-232.csv","xpyriment","Lentiform Loewenfeld","3.3.11","0","/","NA","NA","NA","NA","space","/","672","NA","NA","NA","NA","51824","672","2","legacy","1024","2","48000","-16","AB_m21","232","even","FILL_NW","DASK","1690","145186","141843","143682","53682","NA","NA","NA","NA","NA","142343","NA","NA","NA","141342","NA","141316","1857","145486","NA","NA","NA","142384","1690","1845","NA","NA","143056","143079","141316","142343","142364","morph21_Oliver/Morris","17","16270","21","yes","1920","12"
"400","","81.81818181818181","81.81818181818181","767.4090909090909","767.4090909090909","black","no","xpyriment","legacy","legacy","0","201","NA","uniform","NA","NA","NA","1","undefined","1","0","21","21","21","0","21","21","21","NA","0","21","NA","NA","0","21","NA","21","0","21","NA","NA","NA","21","0","0","NA","NA","21","21","21","21","21","22","/","Thu Dec  7 15:15:22 2023","Executes Python code","yes","m21-ba-lexicalDecision.osexp","C:\Users\ekealey\Desktop","no","mono","no","18","no","white","no","yes","1080","legacy","21","21","C:/Users/ekealey/Desktop/subject-232.csv","xpyriment","Lentiform Loewenfeld","3.3.11","0","/","NA","NA","NA","NA","space","/","613","NA","NA","NA","NA","51824","613","2","legacy","1024","2","48000","-16","AB_m21","232","even","CW_S","DESIGN","1690","148846","147062","143682","53682","NA","NA","NA","NA","NA","147562","NA","NA","NA","146561","NA","146530","1857","149246","NA","NA","NA","147603","1690","1845","NA","NA","148217","148242","146530","147562","147583","morph21_Oliver/Morris","18","16883","22","yes","1920","19"
"300","","82.6086956521739","82.6086956521739","756.1304347826087","756.1304347826087","black","no","xpyriment","legacy","legacy","0","201","NA","uniform","NA","NA","NA","1","undefined","1","0","22","22","22","0","22","22","22","NA","0","22","NA","NA","0","22","NA","22","0","22","NA","NA","NA","22","0","0","NA","NA","22","22","22","22","22","23","/","Thu Dec  7 15:15:22 2023","Executes Python code","yes","m21-ba-lexicalDecision.osexp","C:\Users\ekealey\Desktop","no","mono","no","18","no","white","no","yes","1080","legacy","22","22","C:/Users/ekealey/Desktop/subject-232.csv","xpyriment","Lentiform Loewenfeld","3.3.11","0","/","NA","NA","NA","NA","space","/","508","NA","NA","NA","NA","51824","508","2","legacy","1024","2","48000","-16","AB_m21","232","even","CW_S","BUYER","1690","152514","150838","143682","53682","NA","NA","NA","NA","NA","151340","NA","NA","NA","150335","NA","150311","1857","152815","NA","NA","NA","151380","1690","1845","NA","NA","151889","151912","150311","151340","151360","morph21_Oliver/Morris","19","17391","23","yes","1920","21"
"400","","83.33333333333333","83.33333333333333","748.125","748.125","black","no","xpyriment","legacy","legacy","0","203","NA","uniform","NA","NA","NA","1","undefined","1","0","23","23","23","0","23","23","23","NA","0","23","NA","NA","0","23","NA","23","0","23","NA","NA","NA","23","0","0","NA","NA","23","23","23","23","23","24","z","Thu Dec  7 15:15:22 2023","Executes Python code","yes","m21-ba-lexicalDecision.osexp","C:\Users\ekealey\Desktop","no","mono","no","18","no","white","no","yes","1080","legacy","23","23","C:/Users/ekealey/Desktop/subject-232.csv","xpyriment","Lentiform Loewenfeld","3.3.11","0","z","NA","NA","NA","NA","space","z","564","NA","NA","NA","NA","51824","564","2","legacy","1024","2","48000","-16","AB_m21","232","even","NW_S_COMP","TRUENELS","1690","157659","154423","156156","53682","NA","NA","NA","NA","NA","154923","NA","NA","NA","153922","NA","153893","1857","158059","NA","NA","NA","154964","1690","1845","NA","NA","155528","155552","153893","154923","154944","morph21_Oliver/Morris","20","17955","24","yes","1920","15"
"400","","84","84","750.68","750.68","black","no","xpyriment","legacy","legacy","0","202","NA","uniform","NA","NA","NA","1","undefined","1","0","24","24","24","0","24","24","24","NA","0","24","NA","NA","0","24","NA","24","0","24","NA","NA","NA","24","0","0","NA","NA","24","24","24","24","24","25","/","Thu Dec  7 15:15:22 2023","Executes Python code","yes","m21-ba-lexicalDecision.osexp","C:\Users\ekealey\Desktop","no","mono","no","18","no","white","no","yes","1080","legacy","24","24","C:/Users/ekealey/Desktop/subject-232.csv","xpyriment","Lentiform Loewenfeld","3.3.11","0","/","NA","NA","NA","NA","space","/","812","NA","NA","NA","NA","51824","812","2","legacy","1024","2","48000","-16","AB_m21","232","even","CW_L","COOLING","1690","161627","159647","156156","53682","NA","NA","NA","NA","NA","160148","NA","NA","NA","159145","NA","159119","1857","162027","NA","NA","NA","160188","1690","1845","NA","NA","161001","161024","159119","160148","160168","morph21_Oliver/Morris","21","18767","25","yes","1920","24"
"350","","84.61538461538461","84.61538461538461","757.0384615384615","757.0384615384615","black","no","xpyriment","legacy","legacy","0","202","NA","uniform","NA","NA","NA","1","undefined","1","0","25","25","25","0","25","25","25","NA","0","25","NA","NA","0","25","NA","25","0","25","NA","NA","NA","25","0","0","NA","NA","25","25","25","25","25","26","/","Thu Dec  7 15:15:22 2023","Executes Python code","yes","m21-ba-lexicalDecision.osexp","C:\Users\ekealey\Desktop","no","mono","no","18","no","white","no","yes","1080","legacy","25","25","C:/Users/ekealey/Desktop/subject-232.csv","xpyriment","Lentiform Loewenfeld","3.3.11","0","/","NA","NA","NA","NA","space","/","916","NA","NA","NA","NA","51824","916","2","legacy","1024","2","48000","-16","AB_m21","232","even","CW_L","BARKER","1690","165716","163631","156156","53682","NA","NA","NA","NA","NA","164131","NA","NA","NA","163130","NA","163101","1857","166066","NA","NA","NA","164172","1690","1845","NA","NA","165088","165113","163101","164131","164152","morph21_Oliver/Morris","22","19683","26","yes","1920","2"
"250","","85.18518518518519","85.18518518518519","759.5555555555555","759.5555555555555","black","no","xpyriment","legacy","legacy","0","205","NA","uniform","NA","NA","NA","1","undefined","1","0","26","26","26","0","26","26","26","NA","0","26","NA","NA","0","26","NA","26","0","26","NA","NA","NA","26","0","0","NA","NA","26","26","26","26","26","27","z","Thu Dec  7 15:15:22 2023","Executes Python code","yes","m21-ba-lexicalDecision.osexp","C:\Users\ekealey\Desktop","no","mono","no","18","no","white","no","yes","1080","legacy","26","26","C:/Users/ekealey/Desktop/subject-232.csv","xpyriment","Lentiform Loewenfeld","3.3.11","0","z","NA","NA","NA","NA","space","z","825","NA","NA","NA","NA","51824","825","2","legacy","1024","2","48000","-16","AB_m21","232","even","NW_S_SIMP","ZOOMFUL","1690","171125","167625","169620","53682","NA","NA","NA","NA","NA","168126","NA","NA","NA","167125","NA","167096","1857","171375","NA","NA","NA","168167","1690","1845","NA","NA","168992","169016","167096","168126","168147","morph21_Oliver/Morris","23","20508","27","yes","1920","19"
"400","","85.71428571428571","85.71428571428571","759.6428571428571","759.6428571428571","black","no","xpyriment","legacy","legacy","0","207","NA","uniform","NA","NA","NA","1","undefined","1","0","27","27","27","0","27","27","27","NA","0","27","NA","NA","0","27","NA","27","0","27","NA","NA","NA","27","0","0","NA","NA","27","27","27","27","27","28","/","Thu Dec  7 15:15:22 2023","Executes Python code","yes","m21-ba-lexicalDecision.osexp","C:\Users\ekealey\Desktop","no","mono","no","18","no","white","no","yes","1080","legacy","27","27","C:/Users/ekealey/Desktop/subject-232.csv","xpyriment","Lentiform Loewenfeld","3.3.11","0","/","NA","NA","NA","NA","space","/","762","NA","NA","NA","NA","51824","762","2","legacy","1024","2","48000","-16","AB_m21","232","even","FILL_W","CEASE","1690","174923","172993","169620","53682","NA","NA","NA","NA","NA","173493","NA","NA","NA","172493","NA","172467","1857","175323","NA","NA","NA","173534","1690","1845","NA","NA","174296","174320","172467","173493","173514","morph21_Oliver/Morris","24","21270","28","yes","1920","18"
"250","","86.20689655172414","86.20689655172414","769","769","black","no","xpyriment","legacy","legacy","0","201","NA","uniform","NA","NA","NA","1","undefined","1","0","28","28","28","0","28","28","28","NA","0","28","NA","NA","0","28","NA","28","0","28","NA","NA","NA","28","0","0","NA","NA","28","28","28","28","28","29","/","Thu Dec  7 15:15:22 2023","Executes Python code","yes","m21-ba-lexicalDecision.osexp","C:\Users\ekealey\Desktop","no","mono","no","18","no","white","no","yes","1080","legacy","28","28","C:/Users/ekealey/Desktop/subject-232.csv","xpyriment","Lentiform Loewenfeld","3.3.11","0","/","NA","NA","NA","NA","space","/","1031","NA","NA","NA","NA","51824","1031","2","legacy","1024","2","48000","-16","AB_m21","232","even","CW_S","NOTICEABLE","1690","179099","176900","169620","53682","NA","NA","NA","NA","NA","177400","NA","NA","NA","176399","NA","176366","1857","179349","NA","NA","NA","177441","1690","1845","NA","NA","178473","178496","176366","177400","177421","morph21_Oliver/Morris","25","22301","29","yes","1920","3"
"400","","86.66666666666667","86.66666666666667","763.4333333333333","763.4333333333333","black","no","xpyriment","legacy","legacy","0","208","NA","uniform","NA","NA","NA","1","undefined","1","0","29","29","29","0","29","29","29","NA","0","29","NA","NA","0","29","NA","29","0","29","NA","NA","NA","29","0","0","NA","NA","29","29","29","29","29","30","z","Thu Dec  7 15:15:22 2023","Executes Python code","yes","m21-ba-lexicalDecision.osexp","C:\Users\ekealey\Desktop","no","mono","no","18","no","white","no","yes","1080","legacy","29","29","C:/Users/ekealey/Desktop/subject-232.csv","xpyriment","Lentiform Loewenfeld","3.3.11","0","z","NA","NA","NA","NA","space","z","602","NA","NA","NA","NA","51824","602","2","legacy","1024","2","48000","-16","AB_m21","232","even","FILL_NW","CORG","1690","184194","180920","182691","53682","NA","NA","NA","NA","NA","181421","NA","NA","NA","180419","NA","180388","1857","184594","NA","NA","NA","181461","1690","1845","NA","NA","182064","182088","180388","181421","181441","morph21_Oliver/Morris","26","22903","30","yes","1920","7"
"350","","87.09677419354838","87.09677419354838","756.8387096774194","756.8387096774194","black","no","xpyriment","legacy","legacy","0","207","NA","uniform","NA","NA","NA","1","undefined","1","0","30","30","30","0","30","30","30","NA","0","30","NA","NA","0","30","NA","30","0","30","NA","NA","NA","30","0","0","NA","NA","30","30","30","30","30","31","/","Thu Dec  7 15:15:22 2023","Executes Python code","yes","m21-ba-lexicalDecision.osexp","C:\Users\ekealey\Desktop","no","mono","no","18","no","white","no","yes","1080","legacy","30","30","C:/Users/ekealey/Desktop/subject-232.csv","xpyriment","Lentiform Loewenfeld","3.3.11","0","/","NA","NA","NA","NA","space","/","559","NA","NA","NA","NA","51824","559","2","legacy","1024","2","48000","-16","AB_m21","232","even","FILL_W","FOLLOW","1690","187902","186172","182691","53682","NA","NA","NA","NA","NA","186672","NA","NA","NA","185669","NA","185644","1857","188252","NA","NA","NA","186713","1690","1845","NA","NA","187272","187296","185644","186672","186693","morph21_Oliver/Morris","27","23462","31","yes","1920","17"
"350","","87.5","87.5","752.5625","752.5625","black","no","xpyriment","legacy","legacy","0","207","NA","uniform","NA","NA","NA","1","undefined","1","0","31","31","31","0","31","31","31","NA","0","31","NA","NA","0","31","NA","31","0","31","NA","NA","NA","31","0","0","NA","NA","31","31","31","31","31","32","/","Thu Dec  7 15:15:22 2023","Executes Python code","yes","m21-ba-lexicalDecision.osexp","C:\Users\ekealey\Desktop","no","mono","no","18","no","white","no","yes","1080","legacy","31","31","C:/Users/ekealey/Desktop/subject-232.csv","xpyriment","Lentiform Loewenfeld","3.3.11","0","/","NA","NA","NA","NA","space","/","620","NA","NA","NA","NA","51824","620","2","legacy","1024","2","48000","-16","AB_m21","232","even","FILL_W","BRISK","1690","191612","189823","182691","53682","NA","NA","NA","NA","NA","190324","NA","NA","NA","189323","NA","189293","1857","191963","NA","NA","NA","190364","1690","1845","NA","NA","190985","191009","189293","190323","190344","morph21_Oliver/Morris","28","24082","32","yes","1920","8"
"300","","87.87878787878788","87.87878787878788","745.969696969697","745.969696969697","black","no","xpyriment","legacy","legacy","0","208","NA","uniform","NA","NA","NA","1","undefined","1","0","32","32","32","0","32","32","32","NA","0","32","NA","NA","0","32","NA","32","0","32","NA","NA","NA","32","0","0","NA","NA","32","32","32","32","32","33","z","Thu Dec  7 15:15:22 2023","Executes Python code","yes","m21-ba-lexicalDecision.osexp","C:\Users\ekealey\Desktop","no","mono","no","18","no","white","no","yes","1080","legacy","32","32","C:/Users/ekealey/Desktop/subject-232.csv","xpyriment","Lentiform Loewenfeld","3.3.11","0","z","NA","NA","NA","NA","space","z","535","NA","NA","NA","NA","51824","535","2","legacy","1024","2","48000","-16","AB_m21","232","even","FILL_NW","BAFED","1690","196755","193548","195252","53682","NA","NA","NA","NA","NA","194048","NA","NA","NA","193046","NA","193018","1857","197055","NA","NA","NA","194089","1690","1845","NA","NA","194624","194649","193018","194048","194069","morph21_Oliver/Morris","29","24617","33","yes","1920","1"
"200","","88.23529411764706","88.23529411764706","750.0882352941177","750.0882352941177","black","no","xpyriment","legacy","legacy","0","202","NA","uniform","NA","NA","NA","1","undefined","1","0","33","33","33","0","33","33","33","NA","0","33","NA","NA","0","33","NA","33","0","33","NA","NA","NA","33","0","0","NA","NA","33","33","33","33","33","34","/","Thu Dec  7 15:15:22 2023","Executes Python code","yes","m21-ba-lexicalDecision.osexp","C:\Users\ekealey\Desktop","no","mono","no","18","no","white","no","yes","1080","legacy","33","33","C:/Users/ekealey/Desktop/subject-232.csv","xpyriment","Lentiform Loewenfeld","3.3.11","0","/","NA","NA","NA","NA","space","/","886","NA","NA","NA","NA","51824","886","2","legacy","1024","2","48000","-16","AB_m21","232","even","CW_L","BONELESS","1690","200724","198668","195252","53682","NA","NA","NA","NA","NA","199169","NA","NA","NA","198167","NA","198135","1857","200924","NA","NA","NA","199210","1690","1845","NA","NA","200097","200121","198135","199169","199190","morph21_Oliver/Morris","30","25503","34","yes","1920","34"
"400","","88.57142857142857","88.57142857142857","745.8857142857142","745.8857142857142","black","no","xpyriment","legacy","legacy","0","202","NA","uniform","NA","NA","NA","1","undefined","1","0","34","34","34","0","34","34","34","NA","0","34","NA","NA","0","34","NA","34","0","34","NA","NA","NA","34","0","0","NA","NA","34","34","34","34","34","35","/","Thu Dec  7 15:15:22 2023","Executes Python code","yes","m21-ba-lexicalDecision.osexp","C:\Users\ekealey\Desktop","no","mono","no","18","no","white","no","yes","1080","legacy","34","34","C:/Users/ekealey/Desktop/subject-232.csv","xpyriment","Lentiform Loewenfeld","3.3.11","0","/","NA","NA","NA","NA","space","/","603","NA","NA","NA","NA","51824","603","2","legacy","1024","2","48000","-16","AB_m21","232","even","CW_L","QUIETLY","1690","204309","202534","195252","53682","NA","NA","NA","NA","NA","203037","NA","NA","NA","202032","NA","202008","1857","204709","NA","NA","NA","203077","1690","1845","NA","NA","203681","203706","202008","203037","203057","morph21_Oliver/Morris","31","26106","35","yes","1920","36"
"350","","88.88888888888889","88.88888888888889","741.5555555555555","741.5555555555555","black","no","xpyriment","legacy","legacy","0","208","NA","uniform","NA","NA","NA","1","undefined","1","0","35","35","35","0","35","35","35","NA","0","35","NA","NA","0","35","NA","35","0","35","NA","NA","NA","35","0","0","NA","NA","35","35","35","35","35","36","z","Thu Dec  7 15:15:22 2023","Executes Python code","yes","m21-ba-lexicalDecision.osexp","C:\Users\ekealey\Desktop","no","mono","no","18","no","white","no","yes","1080","legacy","35","35","C:/Users/ekealey/Desktop/subject-232.csv","xpyriment","Lentiform Loewenfeld","3.3.11","0","z","NA","NA","NA","NA","space","z","590","NA","NA","NA","NA","51824","590","2","legacy","1024","2","48000","-16","AB_m21","232","even","FILL_NW","DOADS","1690","209553","206293","208049","53682","NA","NA","NA","NA","NA","206793","NA","NA","NA","205793","NA","205764","1857","209903","NA","NA","NA","206833","1690","1845","NA","NA","207424","207447","205764","206793","206813","morph21_Oliver/Morris","32","26696","36","yes","1920","15"
"200","","89.1891891891892","89.1891891891892","737.5135135135135","737.5135135135135","black","no","xpyriment","legacy","legacy","0","202","NA","uniform","NA","NA","NA","1","undefined","1","0","36","36","36","0","36","36","36","NA","0","36","NA","NA","0","36","NA","36","0","36","NA","NA","NA","36","0","0","NA","NA","36","36","36","36","36","37","/","Thu Dec  7 15:15:22 2023","Executes Python code","yes","m21-ba-lexicalDecision.osexp","C:\Users\ekealey\Desktop","no","mono","no","18","no","white","no","yes","1080","legacy","36","36","C:/Users/ekealey/Desktop/subject-232.csv","xpyriment","Lentiform Loewenfeld","3.3.11","0","/","NA","NA","NA","NA","space","/","592","NA","NA","NA","NA","51824","592","2","legacy","1024","2","48000","-16","AB_m21","232","even","CW_L","COLLECTOR","1690","213250","211490","208049","53682","NA","NA","NA","NA","NA","211991","NA","NA","NA","210990","NA","210959","1857","213450","NA","NA","NA","212031","1690","1845","NA","NA","212624","212647","210959","211991","212011","morph21_Oliver/Morris","33","27288","37","yes","1920","46"
"250","","89.47368421052632","89.47368421052632","733.7368421052631","733.7368421052631","black","no","xpyriment","legacy","legacy","0","207","NA","uniform","NA","NA","NA","1","undefined","1","0","37","37","37","0","37","37","37","NA","0","37","NA","NA","0","37","NA","37","0","37","NA","NA","NA","37","0","0","NA","NA","37","37","37","37","37","38","/","Thu Dec  7 15:15:22 2023","Executes Python code","yes","m21-ba-lexicalDecision.osexp","C:\Users\ekealey\Desktop","no","mono","no","18","no","white","no","yes","1080","legacy","37","37","C:/Users/ekealey/Desktop/subject-232.csv","xpyriment","Lentiform Loewenfeld","3.3.11","0","/","NA","NA","NA","NA","space","/","594","NA","NA","NA","NA","51824","594","2","legacy","1024","2","48000","-16","AB_m21","232","even","FILL_W","SMOKE","1690","216806","215039","208049","53682","NA","NA","NA","NA","NA","215540","NA","NA","NA","214537","NA","214513","1857","217056","NA","NA","NA","215581","1690","1845","NA","NA","216176","216201","214513","215540","215561","morph21_Oliver/Morris","34","27882","38","yes","1920","50"
"300","","89.74358974358974","89.74358974358974","728.6923076923077","728.6923076923077","black","no","xpyriment","legacy","legacy","0","201","NA","uniform","NA","NA","NA","1","undefined","1","0","38","38","38","0","38","38","38","NA","0","38","NA","NA","0","38","NA","38","0","38","NA","NA","NA","38","0","0","NA","NA","38","38","38","38","38","39","/","Thu Dec  7 15:15:22 2023","Executes Python code","yes","m21-ba-lexicalDecision.osexp","C:\Users\ekealey\Desktop","no","mono","no","18","no","white","no","yes","1080","legacy","38","38","C:/Users/ekealey/Desktop/subject-232.csv","xpyriment","Lentiform Loewenfeld","3.3.11","0","/","NA","NA","NA","NA","space","/","537","NA","NA","NA","NA","51824","537","2","legacy","1024","2","48000","-16","AB_m21","232","even","CW_S","MAGICAL","1690","221852","218642","220348","53682","NA","NA","NA","NA","NA","219143","NA","NA","NA","218143","NA","218117","1857","222152","NA","NA","NA","219183","1690","1845","NA","NA","219721","219745","218116","219143","219163","morph21_Oliver/Morris","35","28419","39","yes","1920","4"
"400","","90","90","734.725","734.725","black","no","xpyriment","legacy","legacy","0","205","NA","uniform","NA","NA","NA","1","undefined","1","0","39","39","39","0","39","39","39","NA","0","39","NA","NA","0","39","NA","39","0","39","NA","NA","NA","39","0","0","NA","NA","39","39","39","39","39","40","z","Thu Dec  7 15:15:22 2023","Executes Python code","yes","m21-ba-lexicalDecision.osexp","C:\Users\ekealey\Desktop","no","mono","no","18","no","white","no","yes","1080","legacy","39","39","C:/Users/ekealey/Desktop/subject-232.csv","xpyriment","Lentiform Loewenfeld","3.3.11","0","z","NA","NA","NA","NA","space","z","970","NA","NA","NA","NA","51824","970","2","legacy","1024","2","48000","-16","AB_m21","232","even","NW_S_SIMP","MEDICALARY","1690","225891","223753","220348","53682","NA","NA","NA","NA","NA","224253","NA","NA","NA","223253","NA","223223","1857","226291","NA","NA","NA","224293","1690","1845","NA","NA","225264","225288","223223","224253","224273","morph21_Oliver/Morris","36","29389","40","yes","1920","18"
"300","","90.2439024390244","90.2439024390244","729.9512195121952","729.9512195121952","black","no","xpyriment","legacy","legacy","0","203","NA","uniform","NA","NA","NA","1","undefined","1","0","40","40","40","0","40","40","40","NA","0","40","NA","NA","0","40","NA","40","0","40","NA","NA","NA","40","0","0","NA","NA","40","40","40","40","40","41","z","Thu Dec  7 15:15:22 2023","Executes Python code","yes","m21-ba-lexicalDecision.osexp","C:\Users\ekealey\Desktop","no","mono","no","18","no","white","no","yes","1080","legacy","40","40","C:/Users/ekealey/Desktop/subject-232.csv","xpyriment","Lentiform Loewenfeld","3.3.11","0","z","NA","NA","NA","NA","space","z","539","NA","NA","NA","NA","51824","539","2","legacy","1024","2","48000","-16","AB_m21","232","even","NW_S_COMP","CURTIDY","1690","229574","227863","220348","53682","NA","NA","NA","NA","NA","228363","NA","NA","NA","227362","NA","227334","1857","229874","NA","NA","NA","228404","1690","1845","NA","NA","228944","228969","227334","228363","228384","morph21_Oliver/Morris","37","29928","41","yes","1920","11"
"200","","90.47619047619048","90.47619047619048","726.1666666666666","726.1666666666666","black","no","xpyriment","legacy","legacy","0","201","NA","uniform","NA","NA","NA","1","undefined","1","0","41","41","41","0","41","41","41","NA","0","41","NA","NA","0","41","NA","41","0","41","NA","NA","NA","41","0","0","NA","NA","41","41","41","41","41","42","/","Thu Dec  7 15:15:22 2023","Executes Python code","yes","m21-ba-lexicalDecision.osexp","C:\Users\ekealey\Desktop","no","mono","no","18","no","white","no","yes","1080","legacy","41","41","C:/Users/ekealey/Desktop/subject-232.csv","xpyriment","Lentiform Loewenfeld","3.3.11","0","/","NA","NA","NA","NA","space","/","571","NA","NA","NA","NA","51824","571","2","legacy","1024","2","48000","-16","AB_m21","232","even","CW_S","ANGELIC","1690","234691","231447","233187","53682","NA","NA","NA","NA","NA","231948","NA","NA","NA","230946","NA","230915","1857","234891","NA","NA","NA","231989","1690","1845","NA","NA","232560","232584","230915","231948","231969","morph21_Oliver/Morris","38","30499","42","yes","1920","25"
"250","","90.69767441860465","90.69767441860465","724.1162790697674","724.1162790697674","black","no","xpyriment","legacy","legacy","0","205","NA","uniform","NA","NA","NA","1","undefined","1","0","42","42","42","0","42","42","42","NA","0","42","NA","NA","0","42","NA","42","0","42","NA","NA","NA","42","0","0","NA","NA","42","42","42","42","42","43","z","Thu Dec  7 15:15:22 2023","Executes Python code","yes","m21-ba-lexicalDecision.osexp","C:\Users\ekealey\Desktop","no","mono","no","18","no","white","no","yes","1080","legacy","42","42","C:/Users/ekealey/Desktop/subject-232.csv","xpyriment","Lentiform Loewenfeld","3.3.11","0","z","NA","NA","NA","NA","space","z","638","NA","NA","NA","NA","51824","638","2","legacy","1024","2","48000","-16","AB_m21","232","even","NW_S_SIMP","DIGORY","1690","238282","236475","233187","53682","NA","NA","NA","NA","NA","236976","NA","NA","NA","235974","NA","235942","1857","238532","NA","NA","NA","237017","1690","1845","NA","NA","237656","237679","235942","236976","236997","morph21_Oliver/Morris","39","31137","43","yes","1920","11"
"300","","90.9090909090909","90.9090909090909","720.3636363636364","720.3636363636364","black","no","xpyriment","legacy","legacy","0","206","NA","uniform","NA","NA","NA","1","undefined","1","0","43","43","43","0","43","43","43","NA","0","43","NA","NA","0","43","NA","43","0","43","NA","NA","NA","43","0","0","NA","NA","43","43","43","43","43","44","z","Thu Dec  7 15:15:22 2023","Executes Python code","yes","m21-ba-lexicalDecision.osexp","C:\Users\ekealey\Desktop","no","mono","no","18","no","white","no","yes","1080","legacy","43","43","C:/Users/ekealey/Desktop/subject-232.csv","xpyriment","Lentiform Loewenfeld","3.3.11","0","z","NA","NA","NA","NA","space","z","559","NA","NA","NA","NA","51824","559","2","legacy","1024","2","48000","-16","AB_m21","232","even","NW_L_SIMP","BEGENCE","1690","241869","240140","233187","53682","NA","NA","NA","NA","NA","240641","NA","NA","NA","239639","NA","239613","1857","242169","NA","NA","NA","240681","1690","1845","NA","NA","241241","241265","239613","240641","240661","morph21_Oliver/Morris","40","31696","44","yes","1920","4"
"400","","91.11111111111111","91.11111111111111","720.0666666666667","720.0666666666667","black","no","xpyriment","legacy","legacy","0","208","NA","uniform","NA","NA","NA","1","undefined","1","0","44","44","44","0","44","44","44","NA","0","44","NA","NA","0","44","NA","44","0","44","NA","NA","NA","44","0","0","NA","NA","44","44","44","44","44","45","z","Thu Dec  7 15:15:22 2023","Executes Python code","yes","m21-ba-lexicalDecision.osexp","C:\Users\ekealey\Desktop","no","mono","no","18","no","white","no","yes","1080","legacy","44","44","C:/Users/ekealey/Desktop/subject-232.csv","xpyriment","Lentiform Loewenfeld","3.3.11","0","z","NA","NA","NA","NA","space","z","707","NA","NA","NA","NA","51824","707","2","legacy","1024","2","48000","-16","AB_m21","232","even","FILL_NW","BORMS","1690","247117","243736","245614","53682","NA","NA","NA","NA","NA","244237","NA","NA","NA","243236","NA","243208","1857","247517","NA","NA","NA","244277","1690","1845","NA","NA","244984","245011","243208","244237","244257","morph21_Oliver/Morris","41","32403","45","yes","1920","50"
"300","","91.30434782608695","91.30434782608695","716.7826086956521","716.7826086956521","black","no","xpyriment","legacy","legacy","0","204","NA","uniform","NA","NA","NA","1","undefined","1","0","45","45","45","0","45","45","45","NA","0","45","NA","NA","0","45","NA","45","0","45","NA","NA","NA","45","0","0","NA","NA","45","45","45","45","45","46","z","Thu Dec  7 15:15:22 2023","Executes Python code","yes","m21-ba-lexicalDecision.osexp","C:\Users\ekealey\Desktop","no","mono","no","18","no","white","no","yes","1080","legacy","45","45","C:/Users/ekealey/Desktop/subject-232.csv","xpyriment","Lentiform Loewenfeld","3.3.11","0","z","NA","NA","NA","NA","space","z","569","NA","NA","NA","NA","51824","569","2","legacy","1024","2","48000","-16","AB_m21","232","even","NW_L_COMP","BINDIG","1690","250850","249113","245614","53682","NA","NA","NA","NA","NA","249613","NA","NA","NA","248613","NA","248586","1857","251150","NA","NA","NA","249654","1690","1845","NA","NA","250224","250247","248586","249613","249634","morph21_Oliver/Morris","42","32972","46","yes","1920","22"
"300","","91.48936170212765","91.48936170212765","713.7872340425532","713.7872340425532","black","no","xpyriment","legacy","legacy","0","202","NA","uniform","NA","NA","NA","1","undefined","1","0","46","46","46","0","46","46","46","NA","0","46","NA","NA","0","46","NA","46","0","46","NA","NA","NA","46","0","0","NA","NA","46","46","46","46","46","47","/","Thu Dec  7 15:15:22 2023","Executes Python code","yes","m21-ba-lexicalDecision.osexp","C:\Users\ekealey\Desktop","no","mono","no","18","no","white","no","yes","1080","legacy","46","46","C:/Users/ekealey/Desktop/subject-232.csv","xpyriment","Lentiform Loewenfeld","3.3.11","0","/","NA","NA","NA","NA","space","/","576","NA","NA","NA","NA","51824","576","2","legacy","1024","2","48000","-16","AB_m21","232","even","CW_L","COMPOSER","1690","254477","252731","245614","53682","NA","NA","NA","NA","NA","253232","NA","NA","NA","252230","NA","252206","1857","254777","NA","NA","NA","253272","1690","1845","NA","NA","253848","253874","252206","253231","253252","morph21_Oliver/Morris","43","33548","47","yes","1920","6"
"350","","91.66666666666667","91.66666666666667","711.2916666666666","711.2916666666666","black","no","xpyriment","legacy","legacy","0","206","NA","uniform","NA","NA","NA","1","undefined","1","0","47","47","47","0","47","47","47","NA","0","47","NA","NA","0","47","NA","47","0","47","NA","NA","NA","47","0","0","NA","NA","47","47","47","47","47","48","z","Thu Dec  7 15:15:22 2023","Executes Python code","yes","m21-ba-lexicalDecision.osexp","C:\Users\ekealey\Desktop","no","mono","no","18","no","white","no","yes","1080","legacy","47","47","C:/Users/ekealey/Desktop/subject-232.csv","xpyriment","Lentiform Loewenfeld","3.3.11","0","z","NA","NA","NA","NA","space","z","594","NA","NA","NA","NA","51824","594","2","legacy","1024","2","48000","-16","AB_m21","232","even","NW_L_SIMP","WIGISH","1690","259620","256352","258117","53682","NA","NA","NA","NA","NA","256853","NA","NA","NA","255852","NA","255822","1857","259970","NA","NA","NA","256894","1690","1845","NA","NA","257489","257513","255822","256853","256874","morph21_Oliver/Morris","44","34142","48","yes","1920","9"
"350","","91.83673469387755","91.83673469387755","707.3877551020408","707.3877551020408","black","no","xpyriment","legacy","legacy","0","202","NA","uniform","NA","NA","NA","1","undefined","1","0","48","48","48","0","48","48","48","NA","0","48","NA","NA","0","48","NA","48","0","48","NA","NA","NA","48","0","0","NA","NA","48","48","48","48","48","49","/","Thu Dec  7 15:15:22 2023","Executes Python code","yes","m21-ba-lexicalDecision.osexp","C:\Users\ekealey\Desktop","no","mono","no","18","no","white","no","yes","1080","legacy","48","48","C:/Users/ekealey/Desktop/subject-232.csv","xpyriment","Lentiform Loewenfeld","3.3.11","0","/","NA","NA","NA","NA","space","/","520","NA","NA","NA","NA","51824","520","2","legacy","1024","2","48000","-16","AB_m21","232","even","CW_L","PARKING","1690","263245","261555","258117","53682","NA","NA","NA","NA","NA","262055","NA","NA","NA","261055","NA","261018","1857","263595","NA","NA","NA","262096","1690","1845","NA","NA","262616","262641","261018","262055","262076","morph21_Oliver/Morris","45","34662","49","yes","1920","25"
"400","","92","92","703.7","703.7","black","no","xpyriment","legacy","legacy","0","202","NA","uniform","NA","NA","NA","1","undefined","1","0","49","49","49","0","49","49","49","NA","0","49","NA","NA","0","49","NA","49","0","49","NA","NA","NA","49","0","0","NA","NA","49","49","49","49","49","50","/","Thu Dec  7 15:15:22 2023","Executes Python code","yes","m21-ba-lexicalDecision.osexp","C:\Users\ekealey\Desktop","no","mono","no","18","no","white","no","yes","1080","legacy","49","49","C:/Users/ekealey/Desktop/subject-232.csv","xpyriment","Lentiform Loewenfeld","3.3.11","0","/","NA","NA","NA","NA","space","/","523","NA","NA","NA","NA","51824","523","2","legacy","1024","2","48000","-16","AB_m21","232","even","CW_L","BLINDNESS","1690","266868","265173","258117","53682","NA","NA","NA","NA","NA","265675","NA","NA","NA","264671","NA","264643","1857","267268","NA","NA","NA","265716","1690","1845","NA","NA","266240","266264","264643","265675","265696","morph21_Oliver/Morris","46","35185","50","yes","1920","40"
"200","","92.15686274509804","92.15686274509804","702.0196078431372","702.0196078431372","black","no","xpyriment","legacy","legacy","0","203","NA","uniform","NA","NA","NA","1","undefined","1","0","50","50","50","0","50","50","50","NA","0","50","NA","NA","0","50","NA","50","0","50","NA","NA","NA","50","0","0","NA","NA","50","50","50","50","50","51","z","Thu Dec  7 15:15:22 2023","Executes Python code","yes","m21-ba-lexicalDecision.osexp","C:\Users\ekealey\Desktop","no","mono","no","18","no","white","no","yes","1080","legacy","50","50","C:/Users/ekealey/Desktop/subject-232.csv","xpyriment","Lentiform Loewenfeld","3.3.11","0","z","NA","NA","NA","NA","space","z","618","NA","NA","NA","NA","51824","618","2","legacy","1024","2","48000","-16","AB_m21","232","even","NW_S_COMP","YANKODY","1690","272130","268839","270627","53682","NA","NA","NA","NA","NA","269341","NA","NA","NA","268337","NA","268311","1857","272330","NA","NA","NA","269381","1690","1845","NA","NA","270000","270024","268311","269341","269361","morph21_Oliver/Morris","47","35803","51","yes","1920","23"
"400","","92.3076923076923","92.3076923076923","698.1730769230769","698.1730769230769","black","no","xpyriment","legacy","legacy","0","207","NA","uniform","NA","NA","NA","1","undefined","1","0","51","51","51","0","51","51","51","NA","0","51","NA","NA","0","51","NA","51","0","51","NA","NA","NA","51","0","0","NA","NA","51","51","51","51","51","52","/","Thu Dec  7 15:15:22 2023","Executes Python code","yes","m21-ba-lexicalDecision.osexp","C:\Users\ekealey\Desktop","no","mono","no","18","no","white","no","yes","1080","legacy","51","51","C:/Users/ekealey/Desktop/subject-232.csv","xpyriment","Lentiform Loewenfeld","3.3.11","0","/","NA","NA","NA","NA","space","/","502","NA","NA","NA","NA","51824","502","2","legacy","1024","2","48000","-16","AB_m21","232","even","FILL_W","QUIT","1690","275597","273925","270627","53682","NA","NA","NA","NA","NA","274426","NA","NA","NA","273424","NA","273395","1857","275997","NA","NA","NA","274466","1690","1845","NA","NA","274969","274992","273395","274426","274446","morph21_Oliver/Morris","48","36305","52","yes","1920","21"
"300","","92.45283018867924","92.45283018867924","693.7924528301887","693.7924528301887","black","no","xpyriment","legacy","legacy","0","205","NA","uniform","NA","NA","NA","1","undefined","1","0","52","52","52","0","52","52","52","NA","0","52","NA","NA","0","52","NA","52","0","52","NA","NA","NA","52","0","0","NA","NA","52","52","52","52","52","53","z","Thu Dec  7 15:15:22 2023","Executes Python code","yes","m21-ba-lexicalDecision.osexp","C:\Users\ekealey\Desktop","no","mono","no","18","no","white","no","yes","1080","legacy","52","52","C:/Users/ekealey/Desktop/subject-232.csv","xpyriment","Lentiform Loewenfeld","3.3.11","0","z","NA","NA","NA","NA","space","z","466","NA","NA","NA","NA","51824","466","2","legacy","1024","2","48000","-16","AB_m21","232","even","NW_S_SIMP","HELMETOUS","1690","279213","277575","270627","53682","NA","NA","NA","NA","NA","278076","NA","NA","NA","277075","NA","277048","1857","279513","NA","NA","NA","278117","1690","1845","NA","NA","278585","278610","277048","278076","278096","morph21_Oliver/Morris","49","36771","53","yes","1920","14"
"350","","92.5925925925926","92.5925925925926","691.4074074074074","691.4074074074074","black","no","xpyriment","legacy","legacy","0","204","NA","uniform","NA","NA","NA","1","undefined","1","0","53","53","53","0","53","53","53","NA","0","53","NA","NA","0","53","NA","53","0","53","NA","NA","NA","53","0","0","NA","NA","53","53","53","53","53","54","z","Thu Dec  7 15:15:22 2023","Executes Python code","yes","m21-ba-lexicalDecision.osexp","C:\Users\ekealey\Desktop","no","mono","no","18","no","white","no","yes","1080","legacy","53","53","C:/Users/ekealey/Desktop/subject-232.csv","xpyriment","Lentiform Loewenfeld","3.3.11","0","z","NA","NA","NA","NA","space","z","565","NA","NA","NA","NA","51824","565","2","legacy","1024","2","48000","-16","AB_m21","232","even","NW_L_COMP","AGREELA","1690","284331","281094","282828","53682","NA","NA","NA","NA","NA","281595","NA","NA","NA","280594","NA","280565","1857","284681","NA","NA","NA","281635","1690","1845","NA","NA","282200","282225","280565","281595","281615","morph21_Oliver/Morris","50","37336","54","yes","1920","24"
"250","","92.72727272727273","92.72727272727273","687.3090909090909","687.3090909090909","black","no","xpyriment","legacy","legacy","0","208","NA","uniform","NA","NA","NA","1","undefined","1","0","54","54","54","0","54","54","54","NA","0","54","NA","NA","0","54","NA","54","0","54","NA","NA","NA","54","0","0","NA","NA","54","54","54","54","54","55","z","Thu Dec  7 15:15:22 2023","Executes Python code","yes","m21-ba-lexicalDecision.osexp","C:\Users\ekealey\Desktop","no","mono","no","18","no","white","no","yes","1080","legacy","54","54","C:/Users/ekealey/Desktop/subject-232.csv","xpyriment","Lentiform Loewenfeld","3.3.11","0","z","NA","NA","NA","NA","space","z","466","NA","NA","NA","NA","51824","466","2","legacy","1024","2","48000","-16","AB_m21","232","even","FILL_NW","LOLDS","1690","287893","286257","282828","53682","NA","NA","NA","NA","NA","286756","NA","NA","NA","285757","NA","285723","1857","288144","NA","NA","NA","286798","1690","1845","NA","NA","287265","287290","285723","286756","286778","morph21_Oliver/Morris","51","37802","55","yes","1920","34"
"250","","92.85714285714286","92.85714285714286","683.6785714285714","683.6785714285714","black","no","xpyriment","legacy","legacy","0","201","NA","uniform","NA","NA","NA","1","undefined","1","0","55","55","55","0","55","55","55","NA","0","55","NA","NA","0","55","NA","55","0","55","NA","NA","NA","55","0","0","NA","NA","55","55","55","55","55","56","/","Thu Dec  7 15:15:22 2023","Executes Python code","yes","m21-ba-lexicalDecision.osexp","C:\Users\ekealey\Desktop","no","mono","no","18","no","white","no","yes","1080","legacy","55","55","C:/Users/ekealey/Desktop/subject-232.csv","xpyriment","Lentiform Loewenfeld","3.3.11","0","/","NA","NA","NA","NA","space","/","484","NA","NA","NA","NA","51824","484","2","legacy","1024","2","48000","-16","AB_m21","232","even","CW_S","HUGELY","1690","291380","289726","282828","53682","NA","NA","NA","NA","NA","290226","NA","NA","NA","289225","NA","289194","1857","291630","NA","NA","NA","290267","1690","1845","NA","NA","290752","290776","289194","290226","290247","morph21_Oliver/Morris","52","38286","56","yes","1920","35"
"300","","92.98245614035088","92.98245614035088","679.5263157894736","679.5263157894736","black","no","xpyriment","legacy","legacy","0","208","NA","uniform","NA","NA","NA","1","undefined","1","0","56","56","56","0","56","56","56","NA","0","56","NA","NA","0","56","NA","56","0","56","NA","NA","NA","56","0","0","NA","NA","56","56","56","56","56","57","z","Thu Dec  7 15:15:22 2023","Executes Python code","yes","m21-ba-lexicalDecision.osexp","C:\Users\ekealey\Desktop","no","mono","no","18","no","white","no","yes","1080","legacy","56","56","C:/Users/ekealey/Desktop/subject-232.csv","xpyriment","Lentiform Loewenfeld","3.3.11","0","z","NA","NA","NA","NA","space","z","447","NA","NA","NA","NA","51824","447","2","legacy","1024","2","48000","-16","AB_m21","232","even","FILL_NW","VOOFS","1690","296317","293196","294813","53682","NA","NA","NA","NA","NA","293696","NA","NA","NA","292695","NA","292669","1857","296618","NA","NA","NA","293737","1690","1845","NA","NA","294185","294209","292669","293696","293717","morph21_Oliver/Morris","53","38733","57","yes","1920","48"
"300","","93.10344827586206","93.10344827586206","676.6379310344828","676.6379310344828","black","no","xpyriment","legacy","legacy","0","205","NA","uniform","NA","NA","NA","1","undefined","1","0","57","57","57","0","57","57","57","NA","0","57","NA","NA","0","57","NA","57","0","57","NA","NA","NA","57","0","0","NA","NA","57","57","57","57","57","58","z","Thu Dec  7 15:15:22 2023","Executes Python code","yes","m21-ba-lexicalDecision.osexp","C:\Users\ekealey\Desktop","no","mono","no","18","no","white","no","yes","1080","legacy","57","57","C:/Users/ekealey/Desktop/subject-232.csv","xpyriment","Lentiform Loewenfeld","3.3.11","0","z","NA","NA","NA","NA","space","z","512","NA","NA","NA","NA","51824","512","2","legacy","1024","2","48000","-16","AB_m21","232","even","NW_S_SIMP","TILTARY","1690","299891","298211","294813","53682","NA","NA","NA","NA","NA","298712","NA","NA","NA","297710","NA","297684","1857","300191","NA","NA","NA","298752","1690","1845","NA","NA","299264","299288","297684","298712","298732","morph21_Oliver/Morris","54","39245","58","yes","1920","17"
"350","","93.22033898305085","93.22033898305085","675.2881355932203","675.2881355932203","black","no","xpyriment","legacy","legacy","0","204","NA","uniform","NA","NA","NA","1","undefined","1","0","58","58","58","0","58","58","58","NA","0","58","NA","NA","0","58","NA","58","0","58","NA","NA","NA","58","0","0","NA","NA","58","58","58","58","58","59","z","Thu Dec  7 15:15:22 2023","Executes Python code","yes","m21-ba-lexicalDecision.osexp","C:\Users\ekealey\Desktop","no","mono","no","18","no","white","no","yes","1080","legacy","58","58","C:/Users/ekealey/Desktop/subject-232.csv","xpyriment","Lentiform Loewenfeld","3.3.11","0","z","NA","NA","NA","NA","space","z","597","NA","NA","NA","NA","51824","597","2","legacy","1024","2","48000","-16","AB_m21","232","even","NW_L_COMP","MOUTHIME","1690","303542","301774","294813","53682","NA","NA","NA","NA","NA","302275","NA","NA","NA","301274","NA","301249","1857","303893","NA","NA","NA","302315","1690","1845","NA","NA","302912","302938","301249","302275","302295","morph21_Oliver/Morris","55","39842","59","yes","1920","11"
"200","","93.33333333333333","93.33333333333333","675.4333333333333","675.4333333333333","black","no","xpyriment","legacy","legacy","0","208","NA","uniform","NA","NA","NA","1","undefined","1","0","59","59","59","0","59","59","59","NA","0","59","NA","NA","0","59","NA","59","0","59","NA","NA","NA","59","0","0","NA","NA","59","59","59","59","59","60","z","Thu Dec  7 15:15:22 2023","Executes Python code","yes","m21-ba-lexicalDecision.osexp","C:\Users\ekealey\Desktop","no","mono","no","18","no","white","no","yes","1080","legacy","59","59","C:/Users/ekealey/Desktop/subject-232.csv","xpyriment","Lentiform Loewenfeld","3.3.11","0","z","NA","NA","NA","NA","space","z","684","NA","NA","NA","NA","51824","684","2","legacy","1024","2","48000","-16","AB_m21","232","even","FILL_NW","SMADE","1690","308820","305464","307317","53682","NA","NA","NA","NA","NA","305964","NA","NA","NA","304964","NA","304939","1857","309020","NA","NA","NA","306004","1690","1845","NA","NA","306688","306713","304939","305964","305984","morph21_Oliver/Morris","56","40526","60","yes","1920","42"
"400","","93.44262295081967","93.44262295081967","677.0819672131148","677.0819672131148","black","no","xpyriment","legacy","legacy","0","202","NA","uniform","NA","NA","NA","1","undefined","1","0","60","60","60","0","60","60","60","NA","0","60","NA","NA","0","60","NA","60","0","60","NA","NA","NA","60","0","0","NA","NA","60","60","60","60","60","61","/","Thu Dec  7 15:15:22 2023","Executes Python code","yes","m21-ba-lexicalDecision.osexp","C:\Users\ekealey\Desktop","no","mono","no","18","no","white","no","yes","1080","legacy","60","60","C:/Users/ekealey/Desktop/subject-232.csv","xpyriment","Lentiform Loewenfeld","3.3.11","0","/","NA","NA","NA","NA","space","/","776","NA","NA","NA","NA","51824","776","2","legacy","1024","2","48000","-16","AB_m21","232","even","CW_L","CLOUDLESS","1690","312571","310628","307317","53682","NA","NA","NA","NA","NA","311128","NA","NA","NA","310128","NA","310102","1857","312972","NA","NA","NA","311168","1690","1845","NA","NA","311945","311968","310102","311128","311148","morph21_Oliver/Morris","57","41302","61","yes","1920","33"
"250","","93.54838709677419","93.54838709677419","673.4193548387096","673.4193548387096","black","no","xpyriment","legacy","legacy","0","204","NA","uniform","NA","NA","NA","1","undefined","1","0","61","61","61","0","61","61","61","NA","0","61","NA","NA","0","61","NA","61","0","61","NA","NA","NA","61","0","0","NA","NA","61","61","61","61","61","62","z","Thu Dec  7 15:15:22 2023","Executes Python code","yes","m21-ba-lexicalDecision.osexp","C:\Users\ekealey\Desktop","no","mono","no","18","no","white","no","yes","1080","legacy","61","61","C:/Users/ekealey/Desktop/subject-232.csv","xpyriment","Lentiform Loewenfeld","3.3.11","0","z","NA","NA","NA","NA","space","z","450","NA","NA","NA","NA","51824","450","2","legacy","1024","2","48000","-16","AB_m21","232","even","NW_L_COMP","MUDLA","1690","316186","314568","307317","53682","NA","NA","NA","NA","NA","315068","NA","NA","NA","314068","NA","314044","1857","316436","NA","NA","NA","315109","1690","1845","NA","NA","315560","315583","314044","315068","315089","morph21_Oliver/Morris","58","41752","62","yes","1920","12"
"350","","93.65079365079364","93.65079365079364","670.9047619047619","670.9047619047619","black","no","xpyriment","legacy","legacy","0","205","NA","uniform","NA","NA","NA","1","undefined","1","0","62","62","62","0","62","62","62","NA","0","62","NA","NA","0","62","NA","62","0","62","NA","NA","NA","62","0","0","NA","NA","62","62","62","62","62","63","z","Thu Dec  7 15:15:22 2023","Executes Python code","yes","m21-ba-lexicalDecision.osexp","C:\Users\ekealey\Desktop","no","mono","no","18","no","white","no","yes","1080","legacy","62","62","C:/Users/ekealey/Desktop/subject-232.csv","xpyriment","Lentiform Loewenfeld","3.3.11","0","z","NA","NA","NA","NA","space","z","515","NA","NA","NA","NA","51824","515","2","legacy","1024","2","48000","-16","AB_m21","232","even","NW_S_SIMP","BASKORY","1690","321195","318007","319692","53682","NA","NA","NA","NA","NA","318509","NA","NA","NA","317505","NA","317474","1857","321545","NA","NA","NA","318549","1690","1845","NA","NA","319064","319089","317474","318508","318529","morph21_Oliver/Morris","59","42267","63","yes","1920","10"
"400","","93.75","93.75","668.171875","668.171875","black","no","xpyriment","legacy","legacy","0","207","NA","uniform","NA","NA","NA","1","undefined","1","0","63","63","63","0","63","63","63","NA","0","63","NA","NA","0","63","NA","63","0","63","NA","NA","NA","63","0","0","NA","NA","63","63","63","63","63","64","/","Thu Dec  7 15:15:22 2023","Executes Python code","yes","m21-ba-lexicalDecision.osexp","C:\Users\ekealey\Desktop","no","mono","no","18","no","white","no","yes","1080","legacy","63","63","C:/Users/ekealey/Desktop/subject-232.csv","xpyriment","Lentiform Loewenfeld","3.3.11","0","/","NA","NA","NA","NA","space","/","496","NA","NA","NA","NA","51824","496","2","legacy","1024","2","48000","-16","AB_m21","232","even","FILL_W","CHIP","1690","324795","323130","319692","53682","NA","NA","NA","NA","NA","323630","NA","NA","NA","322629","NA","322603","1857","325195","NA","NA","NA","323671","1690","1845","NA","NA","324168","324192","322603","323630","323651","morph21_Oliver/Morris","60","42763","64","yes","1920","11"
"350","","93.84615384615384","93.84615384615384","664.3538461538461","664.3538461538461","black","no","xpyriment","legacy","legacy","0","201","NA","uniform","NA","NA","NA","1","undefined","1","0","64","64","64","0","64","64","64","NA","0","64","NA","NA","0","64","NA","64","0","64","NA","NA","NA","64","0","0","NA","NA","64","64","64","64","64","65","/","Thu Dec  7 15:15:22 2023","Executes Python code","yes","m21-ba-lexicalDecision.osexp","C:\Users\ekealey\Desktop","no","mono","no","18","no","white","no","yes","1080","legacy","64","64","C:/Users/ekealey/Desktop/subject-232.csv","xpyriment","Lentiform Loewenfeld","3.3.11","0","/","NA","NA","NA","NA","space","/","420","NA","NA","NA","NA","51824","420","2","legacy","1024","2","48000","-16","AB_m21","232","even","CW_S","CHILLY","1690","328362","326774","319692","53682","NA","NA","NA","NA","NA","327275","NA","NA","NA","326273","NA","326247","1857","328712","NA","NA","NA","327315","1690","1845","NA","NA","327736","327759","326247","327275","327295","morph21_Oliver/Morris","61","43183","65","yes","1920","48"
"200","","93.93939393939394","93.93939393939394","661.6666666666666","661.6666666666666","black","no","xpyriment","legacy","legacy","0","203","NA","uniform","NA","NA","NA","1","undefined","1","0","65","65","65","0","65","65","65","NA","0","65","NA","NA","0","65","NA","65","0","65","NA","NA","NA","65","0","0","NA","NA","65","65","65","65","65","66","z","Thu Dec  7 15:15:22 2023","Executes Python code","yes","m21-ba-lexicalDecision.osexp","C:\Users\ekealey\Desktop","no","mono","no","18","no","white","no","yes","1080","legacy","65","65","C:/Users/ekealey/Desktop/subject-232.csv","xpyriment","Lentiform Loewenfeld","3.3.11","0","z","NA","NA","NA","NA","space","z","487","NA","NA","NA","NA","51824","487","2","legacy","1024","2","48000","-16","AB_m21","232","even","NW_S_COMP","FANFIL","1690","333451","330292","331948","53682","NA","NA","NA","NA","NA","330792","NA","NA","NA","329792","NA","329764","1857","333651","NA","NA","NA","330833","1690","1845","NA","NA","331320","331345","329764","330792","330813","morph21_Oliver/Morris","62","43670","66","yes","1920","6"
"400","","92.53731343283582","92.53731343283582","665.1343283582089","665.1343283582089","black","no","xpyriment","legacy","legacy","0","208","NA","uniform","NA","NA","NA","0","undefined","0","0","66","66","66","0","66","66","66","NA","0","66","NA","NA","0","66","NA","66","0","66","NA","NA","NA","66","0","0","NA","NA","66","66","66","66","66","67","z","Thu Dec  7 15:15:22 2023","Executes Python code","yes","m21-ba-lexicalDecision.osexp","C:\Users\ekealey\Desktop","no","mono","no","18","no","white","no","yes","1080","legacy","66","66","C:/Users/ekealey/Desktop/subject-232.csv","xpyriment","Lentiform Loewenfeld","3.3.11","0","/","NA","NA","NA","NA","space","/","894","NA","NA","NA","NA","51824","894","2","legacy","1024","2","48000","-16","AB_m21","232","even","FILL_NW","VELT","1690","337284","335220","331948","53682","NA","NA","NA","NA","NA","335721","NA","NA","NA","334720","NA","334691","1857","337684","NA","NA","NA","335762","1690","1845","NA","NA","336656","336681","334691","335721","335742","morph21_Oliver/Morris","62","44564","67","yes","1920","46"
"350","","92.6470588235294","92.6470588235294","663.0294117647059","663.0294117647059","black","no","xpyriment","legacy","legacy","0","203","NA","uniform","NA","NA","NA","1","undefined","1","0","67","67","67","0","67","67","67","NA","0","67","NA","NA","0","67","NA","67","0","67","NA","NA","NA","67","0","0","NA","NA","67","67","67","67","67","68","z","Thu Dec  7 15:15:22 2023","Executes Python code","yes","m21-ba-lexicalDecision.osexp","C:\Users\ekealey\Desktop","no","mono","no","18","no","white","no","yes","1080","legacy","67","67","C:/Users/ekealey/Desktop/subject-232.csv","xpyriment","Lentiform Loewenfeld","3.3.11","0","z","NA","NA","NA","NA","space","z","522","NA","NA","NA","NA","51824","522","2","legacy","1024","2","48000","-16","AB_m21","232","even","NW_S_COMP","HUMIDOES","1690","340941","339250","331948","53682","NA","NA","NA","NA","NA","339750","NA","NA","NA","338749","NA","338722","1857","341291","NA","NA","NA","339790","1690","1845","NA","NA","340313","340337","338722","339750","339770","morph21_Oliver/Morris","63","45086","68","yes","1920","25"
"250","","92.7536231884058","92.7536231884058","659.6231884057971","659.6231884057971","black","no","xpyriment","legacy","legacy","0","201","NA","uniform","NA","NA","NA","1","undefined","1","0","68","68","68","0","68","68","68","NA","0","68","NA","NA","0","68","NA","68","0","68","NA","NA","NA","68","0","0","NA","NA","68","68","68","68","68","69","/","Thu Dec  7 15:15:22 2023","Executes Python code","yes","m21-ba-lexicalDecision.osexp","C:\Users\ekealey\Desktop","no","mono","no","18","no","white","no","yes","1080","legacy","68","68","C:/Users/ekealey/Desktop/subject-232.csv","xpyriment","Lentiform Loewenfeld","3.3.11","0","/","NA","NA","NA","NA","space","/","428","NA","NA","NA","NA","51824","428","2","legacy","1024","2","48000","-16","AB_m21","232","even","CW_S","PEAKING","1690","345963","342862","344459","53682","NA","NA","NA","NA","NA","343362","NA","NA","NA","342362","NA","342337","1857","346213","NA","NA","NA","343403","1690","1845","NA","NA","343833","343856","342337","343362","343383","morph21_Oliver/Morris","64","45514","69","yes","1920","28"
"400","","91.42857142857143","91.42857142857143","659.5428571428571","659.5428571428571","black","no","xpyriment","legacy","legacy","0","201","NA","uniform","NA","NA","NA","0","undefined","0","0","69","69","69","0","69","69","69","NA","0","69","NA","NA","0","69","NA","69","0","69","NA","NA","NA","69","0","0","NA","NA","69","69","69","69","69","70","/","Thu Dec  7 15:15:22 2023","Executes Python code","yes","m21-ba-lexicalDecision.osexp","C:\Users\ekealey\Desktop","no","mono","no","18","no","white","no","yes","1080","legacy","69","69","C:/Users/ekealey/Desktop/subject-232.csv","xpyriment","Lentiform Loewenfeld","3.3.11","0","z","NA","NA","NA","NA","space","z","654","NA","NA","NA","NA","51824","654","2","legacy","1024","2","48000","-16","AB_m21","232","even","CW_S","WIDOWED","1690","349597","347773","344459","53682","NA","NA","NA","NA","NA","348274","NA","NA","NA","347271","NA","347245","1857","349997","NA","NA","NA","348314","1690","1845","NA","NA","348968","348993","347245","348274","348294","morph21_Oliver/Morris","64","46168","70","yes","1920","7"
"400","","91.54929577464789","91.54929577464789","659.0140845070423","659.0140845070423","black","no","xpyriment","legacy","legacy","0","207","NA","uniform","NA","NA","NA","1","undefined","1","0","70","70","70","0","70","70","70","NA","0","70","NA","NA","0","70","NA","70","0","70","NA","NA","NA","70","0","0","NA","NA","70","70","70","70","70","71","/","Thu Dec  7 15:15:22 2023","Executes Python code","yes","m21-ba-lexicalDecision.osexp","C:\Users\ekealey\Desktop","no","mono","no","18","no","white","no","yes","1080","legacy","70","70","C:/Users/ekealey/Desktop/subject-232.csv","xpyriment","Lentiform Loewenfeld","3.3.11","0","/","NA","NA","NA","NA","space","/","622","NA","NA","NA","NA","51824","622","2","legacy","1024","2","48000","-16","AB_m21","232","even","FILL_W","STEEP","1690","353341","351548","344459","53682","NA","NA","NA","NA","NA","352049","NA","NA","NA","351046","NA","351019","1857","353741","NA","NA","NA","352089","1690","1845","NA","NA","352712","352736","351019","352048","352069","morph21_Oliver/Morris","65","46790","71","yes","1920","16"
"250","","91.66666666666667","91.66666666666667","655.1944444444445","655.1944444444445","black","no","xpyriment","legacy","legacy","0","207","NA","uniform","NA","NA","NA","1","undefined","1","0","71","71","71","0","71","71","71","NA","0","71","NA","NA","0","71","NA","71","0","71","NA","NA","NA","71","0","0","NA","NA","71","71","71","71","71","72","/","Thu Dec  7 15:15:22 2023","Executes Python code","yes","m21-ba-lexicalDecision.osexp","C:\Users\ekealey\Desktop","no","mono","no","18","no","white","no","yes","1080","legacy","71","71","C:/Users/ekealey/Desktop/subject-232.csv","xpyriment","Lentiform Loewenfeld","3.3.11","0","/","NA","NA","NA","NA","space","/","384","NA","NA","NA","NA","51824","384","2","legacy","1024","2","48000","-16","AB_m21","232","even","FILL_W","SUIT","1690","358386","355330","356883","53682","NA","NA","NA","NA","NA","355831","NA","NA","NA","354829","NA","354800","1857","358636","NA","NA","NA","355871","1690","1845","NA","NA","356256","356280","354800","355831","355851","morph21_Oliver/Morris","66","47174","72","yes","1920","49"
"200","","91.78082191780823","91.78082191780823","656.4794520547945","656.4794520547945","black","no","xpyriment","legacy","legacy","0","206","NA","uniform","NA","NA","NA","1","undefined","1","0","72","72","72","0","72","72","72","NA","0","72","NA","NA","0","72","NA","72","0","72","NA","NA","NA","72","0","0","NA","NA","72","72","72","72","72","73","z","Thu Dec  7 15:15:22 2023","Executes Python code","yes","m21-ba-lexicalDecision.osexp","C:\Users\ekealey\Desktop","no","mono","no","18","no","white","no","yes","1080","legacy","72","72","C:/Users/ekealey/Desktop/subject-232.csv","xpyriment","Lentiform Loewenfeld","3.3.11","0","z","NA","NA","NA","NA","space","z","749","NA","NA","NA","NA","51824","749","2","legacy","1024","2","48000","-16","AB_m21","232","even","NW_L_SIMP","GROWIST","1690","362155","360235","356883","53682","NA","NA","NA","NA","NA","360737","NA","NA","NA","359732","NA","359708","1857","362355","NA","NA","NA","360778","1690","1845","NA","NA","361528","361552","359708","360737","360758","morph21_Oliver/Morris","67","47923","73","yes","1920","20"
"350","","91.89189189189189","91.89189189189189","653.9054054054054","653.9054054054054","black","no","xpyriment","legacy","legacy","0","207","NA","uniform","NA","NA","NA","1","undefined","1","0","73","73","73","0","73","73","73","NA","0","73","NA","NA","0","73","NA","73","0","73","NA","NA","NA","73","0","0","NA","NA","73","73","73","73","73","74","/","Thu Dec  7 15:15:22 2023","Executes Python code","yes","m21-ba-lexicalDecision.osexp","C:\Users\ekealey\Desktop","no","mono","no","18","no","white","no","yes","1080","legacy","73","73","C:/Users/ekealey/Desktop/subject-232.csv","xpyriment","Lentiform Loewenfeld","3.3.11","0","/","NA","NA","NA","NA","space","/","466","NA","NA","NA","NA","51824","466","2","legacy","1024","2","48000","-16","AB_m21","232","even","FILL_W","LEAK","1690","365564","363928","356883","53682","NA","NA","NA","NA","NA","364429","NA","NA","NA","363427","NA","363402","1857","365914","NA","NA","NA","364469","1690","1845","NA","NA","364936","364960","363402","364429","364449","morph21_Oliver/Morris","68","48389","74","yes","1920","9"
"300","","92","92","651.16","651.16","black","no","xpyriment","legacy","legacy","0","206","NA","uniform","NA","NA","NA","undefined","undefined","1","0","74","74","74","0","74","74","74","NA","0","74","NA","NA","0","74","NA","74","0","74","NA","NA","NA","74","0","0","NA","NA","74","74","74","74","74","75","z","Thu Dec  7 15:15:22 2023","Executes Python code","yes","m21-ba-lexicalDecision.osexp","C:\Users\ekealey\Desktop","no","mono","no","18","no","white","no","yes","1080","legacy","74","74","C:/Users/ekealey/Desktop/subject-232.csv","xpyriment","Lentiform Loewenfeld","3.3.11","0","space","space","NA","NA","NA","space","z","8412","8412","NA","NA","NA","51824","448","2","legacy","1024","2","48000","-16","AB_m21","232","even","NW_L_SIMP","PRAYANCE","1690","370603","367483","369099","53682","370907","NA","NA","NA","NA","367983","NA","NA","NA","366983","NA","366952","1857","379320","NA","NA","NA","368023","1690","1845","NA","NA","368472","368496","366952","367983","368003","morph21_Oliver/Morris","69","48837","75","yes","1920","1"
"200","","92.10526315789474","92.10526315789474","651.8684210526316","651.8684210526316","black","no","xpyriment","legacy","legacy","0","202","NA","uniform","NA","NA","NA","1","undefined","1","0","75","75","75","0","75","75","75","NA","0","75","NA","NA","0","75","NA","75","0","75","NA","NA","NA","75","0","0","NA","NA","75","75","75","75","75","76","/","Thu Dec  7 15:15:22 2023","Executes Python code","yes","m21-ba-lexicalDecision.osexp","C:\Users\ekealey\Desktop","no","mono","no","18","no","white","no","yes","1080","legacy","75","75","C:/Users/ekealey/Desktop/subject-232.csv","xpyriment","Lentiform Loewenfeld","3.3.11","0","/","space","NA","NA","NA","space","/","705","8412","NA","NA","NA","51824","705","2","legacy","1024","2","48000","-16","AB_m21","232","even","CW_L","SHAMEFUL","1690","382782","380906","369099","53682","370907","NA","NA","NA","NA","381406","NA","NA","NA","380405","NA","380376","1857","382982","NA","NA","NA","381447","1690","1845","NA","NA","382152","382179","380376","381406","381427","morph21_Oliver/Morris","70","49542","76","yes","1920","19"
"250","","92.20779220779221","92.20779220779221","648.2727272727273","648.2727272727273","black","no","xpyriment","legacy","legacy","0","202","NA","uniform","NA","NA","NA","1","undefined","1","0","76","76","76","0","76","76","76","NA","0","76","NA","NA","0","76","NA","76","0","76","NA","NA","NA","76","0","0","NA","NA","76","76","76","76","76","77","/","Thu Dec  7 15:15:22 2023","Executes Python code","yes","m21-ba-lexicalDecision.osexp","C:\Users\ekealey\Desktop","no","mono","no","18","no","white","no","yes","1080","legacy","76","76","C:/Users/ekealey/Desktop/subject-232.csv","xpyriment","Lentiform Loewenfeld","3.3.11","0","/","space","NA","NA","NA","space","/","375","8412","NA","NA","NA","51824","375","2","legacy","1024","2","48000","-16","AB_m21","232","even","CW_L","DREAMER","1690","386091","384547","369099","53682","370907","NA","NA","NA","NA","385048","NA","NA","NA","384046","NA","384019","1857","386341","NA","NA","NA","385088","1690","1845","NA","NA","385464","385488","384019","385048","385068","morph21_Oliver/Morris","71","49917","77","yes","1920","12"
"250","","92.3076923076923","92.3076923076923","647.8461538461538","647.8461538461538","black","no","xpyriment","legacy","legacy","0","201","NA","uniform","NA","NA","NA","1","undefined","1","0","77","77","77","0","77","77","77","NA","0","77","NA","NA","0","77","NA","77","0","77","NA","NA","NA","77","0","0","NA","NA","77","77","77","77","77","78","/","Thu Dec  7 15:15:22 2023","Executes Python code","yes","m21-ba-lexicalDecision.osexp","C:\Users\ekealey\Desktop","no","mono","no","18","no","white","no","yes","1080","legacy","77","77","C:/Users/ekealey/Desktop/subject-232.csv","xpyriment","Lentiform Loewenfeld","3.3.11","0","/","space","NA","NA","NA","space","/","615","8412","NA","NA","NA","51824","615","2","legacy","1024","2","48000","-16","AB_m21","232","even","CW_S","HARMLESS","1690","391235","387947","389731","53682","370907","NA","NA","NA","NA","388448","NA","NA","NA","387445","NA","387419","1857","391486","NA","NA","NA","388489","1690","1845","NA","NA","389104","389128","387419","388448","388469","morph21_Oliver/Morris","72","50532","78","yes","1920","29"
"350","","92.40506329113924","92.40506329113924","645.5316455696203","645.5316455696203","black","no","xpyriment","legacy","legacy","0","203","NA","uniform","NA","NA","NA","1","undefined","1","0","78","78","78","0","78","78","78","NA","0","78","NA","NA","0","78","NA","78","0","78","NA","NA","NA","78","0","0","NA","NA","78","78","78","78","78","79","z","Thu Dec  7 15:15:22 2023","Executes Python code","yes","m21-ba-lexicalDecision.osexp","C:\Users\ekealey\Desktop","no","mono","no","18","no","white","no","yes","1080","legacy","78","78","C:/Users/ekealey/Desktop/subject-232.csv","xpyriment","Lentiform Loewenfeld","3.3.11","0","z","space","NA","NA","NA","space","z","465","8412","NA","NA","NA","51824","465","2","legacy","1024","2","48000","-16","AB_m21","232","even","NW_S_COMP","FIENDILM","1690","394710","393073","389731","53682","370907","NA","NA","NA","NA","393574","NA","NA","NA","392572","NA","392543","1857","395060","NA","NA","NA","393614","1690","1845","NA","NA","394080","394107","392543","393574","393594","morph21_Oliver/Morris","73","50997","79","yes","1920","24"
"350","","92.5","92.5","645.925","645.925","black","no","xpyriment","legacy","legacy","0","208","NA","uniform","NA","NA","NA","1","undefined","1","0","79","79","79","0","79","79","79","NA","0","79","NA","NA","0","79","NA","79","0","79","NA","NA","NA","79","0","0","NA","NA","79","79","79","79","79","80","z","Thu Dec  7 15:15:22 2023","Executes Python code","yes","m21-ba-lexicalDecision.osexp","C:\Users\ekealey\Desktop","no","mono","no","18","no","white","no","yes","1080","legacy","79","79","C:/Users/ekealey/Desktop/subject-232.csv","xpyriment","Lentiform Loewenfeld","3.3.11","0","z","space","NA","NA","NA","space","z","677","8412","NA","NA","NA","51824","677","2","legacy","1024","2","48000","-16","AB_m21","232","even","FILL_NW","DELP","1690","398491","396645","389731","53682","370907","NA","NA","NA","NA","397146","NA","NA","NA","396145","NA","396118","1857","398841","NA","NA","NA","397186","1690","1845","NA","NA","397864","397888","396118","397146","397166","morph21_Oliver/Morris","74","51674","80","yes","1920","14"
"300","","92.5925925925926","92.5925925925926","643.6172839506173","643.6172839506173","black","no","xpyriment","legacy","legacy","0","203","NA","uniform","NA","NA","NA","1","undefined","1","0","80","80","80","0","80","80","80","NA","0","80","NA","NA","0","80","NA","80","0","80","NA","NA","NA","80","0","0","NA","NA","80","80","80","80","80","81","z","Thu Dec  7 15:15:22 2023","Executes Python code","yes","m21-ba-lexicalDecision.osexp","C:\Users\ekealey\Desktop","no","mono","no","18","no","white","no","yes","1080","legacy","80","80","C:/Users/ekealey/Desktop/subject-232.csv","xpyriment","Lentiform Loewenfeld","3.3.11","0","z","space","NA","NA","NA","space","z","459","8412","NA","NA","NA","51824","459","2","legacy","1024","2","48000","-16","AB_m21","232","even","NW_S_COMP","FIGEL","1690","403555","400423","402052","53682","370907","NA","NA","NA","NA","400923","NA","NA","NA","399923","NA","399895","1857","403855","NA","NA","NA","400964","1690","1845","NA","NA","401423","401449","399895","400923","400944","morph21_Oliver/Morris","75","52133","81","yes","1920","4"
"300","","92.6829268292683","92.6829268292683","643.3780487804878","643.3780487804878","black","no","xpyriment","legacy","legacy","0","204","NA","uniform","NA","NA","NA","1","undefined","1","0","81","81","81","0","81","81","81","NA","0","81","NA","NA","0","81","NA","81","0","81","NA","NA","NA","81","0","0","NA","NA","81","81","81","81","81","82","z","Thu Dec  7 15:15:22 2023","Executes Python code","yes","m21-ba-lexicalDecision.osexp","C:\Users\ekealey\Desktop","no","mono","no","18","no","white","no","yes","1080","legacy","81","81","C:/Users/ekealey/Desktop/subject-232.csv","xpyriment","Lentiform Loewenfeld","3.3.11","0","z","space","NA","NA","NA","space","z","624","8412","NA","NA","NA","51824","624","2","legacy","1024","2","48000","-16","AB_m21","232","even","NW_L_COMP","FELLOWOES","1690","407246","405450","402052","53682","370907","NA","NA","NA","NA","405951","NA","NA","NA","404948","NA","404921","1857","407546","NA","NA","NA","405991","1690","1845","NA","NA","406616","406640","404921","405951","405971","morph21_Oliver/Morris","76","52757","82","yes","1920","17"
"200","","92.7710843373494","92.7710843373494","642.3493975903615","642.3493975903615","black","no","xpyriment","legacy","legacy","0","207","NA","uniform","NA","NA","NA","1","undefined","1","0","82","82","82","0","82","82","82","NA","0","82","NA","NA","0","82","NA","82","0","82","NA","NA","NA","82","0","0","NA","NA","82","82","82","82","82","83","/","Thu Dec  7 15:15:22 2023","Executes Python code","yes","m21-ba-lexicalDecision.osexp","C:\Users\ekealey\Desktop","no","mono","no","18","no","white","no","yes","1080","legacy","82","82","C:/Users/ekealey/Desktop/subject-232.csv","xpyriment","Lentiform Loewenfeld","3.3.11","0","/","space","NA","NA","NA","space","/","558","8412","NA","NA","NA","51824","558","2","legacy","1024","2","48000","-16","AB_m21","232","even","FILL_W","STALK","1690","410837","409107","402052","53682","370907","NA","NA","NA","NA","409609","NA","NA","NA","408606","NA","408581","1857","411037","NA","NA","NA","409649","1690","1845","NA","NA","410208","410232","408581","409609","409629","morph21_Oliver/Morris","77","53315","83","yes","1920","27"
"200","","92.85714285714286","92.85714285714286","640.952380952381","640.952380952381","black","no","xpyriment","legacy","legacy","0","207","NA","uniform","NA","NA","NA","1","undefined","1","0","83","83","83","0","83","83","83","NA","0","83","NA","NA","0","83","NA","83","0","83","NA","NA","NA","83","0","0","NA","NA","83","83","83","83","83","84","/","Thu Dec  7 15:15:22 2023","Executes Python code","yes","m21-ba-lexicalDecision.osexp","C:\Users\ekealey\Desktop","no","mono","no","18","no","white","no","yes","1080","legacy","83","83","C:/Users/ekealey/Desktop/subject-232.csv","xpyriment","Lentiform Loewenfeld","3.3.11","0","/","space","NA","NA","NA","space","/","525","8412","NA","NA","NA","51824","525","2","legacy","1024","2","48000","-16","AB_m21","232","even","FILL_W","BRASS","1690","415836","412636","414333","53682","370907","NA","NA","NA","NA","413137","NA","NA","NA","412134","NA","412109","1857","416036","NA","NA","NA","413178","1690","1845","NA","NA","413703","413728","412109","413137","413158","morph21_Oliver/Morris","78","53840","84","yes","1920","10"
"350","","92.94117647058823","92.94117647058823","639.564705882353","639.564705882353","black","no","xpyriment","legacy","legacy","0","201","NA","uniform","NA","NA","NA","1","undefined","1","0","84","84","84","0","84","84","84","NA","0","84","NA","NA","0","84","NA","84","0","84","NA","NA","NA","84","0","0","NA","NA","84","84","84","84","84","85","/","Thu Dec  7 15:15:22 2023","Executes Python code","yes","m21-ba-lexicalDecision.osexp","C:\Users\ekealey\Desktop","no","mono","no","18","no","white","no","yes","1080","legacy","84","84","C:/Users/ekealey/Desktop/subject-232.csv","xpyriment","Lentiform Loewenfeld","3.3.11","0","/","space","NA","NA","NA","space","/","523","8412","NA","NA","NA","51824","523","2","legacy","1024","2","48000","-16","AB_m21","232","even","CW_S","TEACHER","1690","419341","417647","414333","53682","370907","NA","NA","NA","NA","418148","NA","NA","NA","417146","NA","417118","1857","419691","NA","NA","NA","418188","1690","1845","NA","NA","418712","418736","417118","418148","418168","morph21_Oliver/Morris","79","54363","85","yes","1920","23"
"300","","93.02325581395348","93.02325581395348","638.2790697674419","638.2790697674419","black","no","xpyriment","legacy","legacy","0","204","NA","uniform","NA","NA","NA","1","undefined","1","0","85","85","85","0","85","85","85","NA","0","85","NA","NA","0","85","NA","85","0","85","NA","NA","NA","85","0","0","NA","NA","85","85","85","85","85","86","z","Thu Dec  7 15:15:22 2023","Executes Python code","yes","m21-ba-lexicalDecision.osexp","C:\Users\ekealey\Desktop","no","mono","no","18","no","white","no","yes","1080","legacy","85","85","C:/Users/ekealey/Desktop/subject-232.csv","xpyriment","Lentiform Loewenfeld","3.3.11","0","z","space","NA","NA","NA","space","z","529","8412","NA","NA","NA","51824","529","2","legacy","1024","2","48000","-16","AB_m21","232","even","NW_L_COMP","IME","1690","422963","421265","414333","53682","370907","NA","NA","NA","NA","421766","NA","NA","NA","420763","NA","420733","1857","423263","NA","NA","NA","421806","1690","1845","NA","NA","422337","422360","420733","421766","421786","morph21_Oliver/Morris","80","54892","86","yes","1920","20"
"300","","93.10344827586206","93.10344827586206","636.551724137931","636.551724137931","black","no","xpyriment","legacy","legacy","0","202","NA","uniform","NA","NA","NA","1","undefined","1","0","86","86","86","0","86","86","86","NA","0","86","NA","NA","0","86","NA","86","0","86","NA","NA","NA","86","0","0","NA","NA","86","86","86","86","86","87","/","Thu Dec  7 15:15:22 2023","Executes Python code","yes","m21-ba-lexicalDecision.osexp","C:\Users\ekealey\Desktop","no","mono","no","18","no","white","no","yes","1080","legacy","86","86","C:/Users/ekealey/Desktop/subject-232.csv","xpyriment","Lentiform Loewenfeld","3.3.11","0","/","space","NA","NA","NA","space","/","488","8412","NA","NA","NA","51824","488","2","legacy","1024","2","48000","-16","AB_m21","232","even","CW_L","HEATER","1690","428015","424849","426512","53682","370907","NA","NA","NA","NA","425349","NA","NA","NA","424348","NA","424321","1857","428315","NA","NA","NA","425391","1690","1845","NA","NA","425880","425906","424321","425349","425370","morph21_Oliver/Morris","81","55380","87","yes","1920","16"
"200","","92.04545454545455","92.04545454545455","635.8295454545455","635.8295454545455","black","no","xpyriment","legacy","legacy","0","208","NA","uniform","NA","NA","NA","0","undefined","0","0","87","87","87","0","87","87","87","NA","0","87","NA","NA","0","87","NA","87","0","87","NA","NA","NA","87","0","0","NA","NA","87","87","87","87","87","88","z","Thu Dec  7 15:15:22 2023","Executes Python code","yes","m21-ba-lexicalDecision.osexp","C:\Users\ekealey\Desktop","no","mono","no","18","no","white","no","yes","1080","legacy","87","87","C:/Users/ekealey/Desktop/subject-232.csv","xpyriment","Lentiform Loewenfeld","3.3.11","0","/","space","NA","NA","NA","space","/","573","8412","NA","NA","NA","51824","573","2","legacy","1024","2","48000","-16","AB_m21","232","even","FILL_NW","DARM","1690","431650","429907","426512","53682","370907","NA","NA","NA","NA","430409","NA","NA","NA","429406","NA","429377","1857","431850","NA","NA","NA","430450","1690","1845","NA","NA","431024","431047","429377","430409","430430","morph21_Oliver/Morris","81","55953","88","yes","1920","11"
"200","","92.13483146067416","92.13483146067416","634.1460674157304","634.1460674157304","black","no","xpyriment","legacy","legacy","0","207","NA","uniform","NA","NA","NA","1","undefined","1","0","88","88","88","0","88","88","88","NA","0","88","NA","NA","0","88","NA","88","0","88","NA","NA","NA","88","0","0","NA","NA","88","88","88","88","88","89","/","Thu Dec  7 15:15:22 2023","Executes Python code","yes","m21-ba-lexicalDecision.osexp","C:\Users\ekealey\Desktop","no","mono","no","18","no","white","no","yes","1080","legacy","88","88","C:/Users/ekealey/Desktop/subject-232.csv","xpyriment","Lentiform Loewenfeld","3.3.11","0","/","space","NA","NA","NA","space","/","486","8412","NA","NA","NA","51824","486","2","legacy","1024","2","48000","-16","AB_m21","232","even","FILL_W","WRECK","1690","435083","433428","426512","53682","370907","NA","NA","NA","NA","433928","NA","NA","NA","432927","NA","432903","1857","435283","NA","NA","NA","433969","1690","1845","NA","NA","434456","434480","432903","433928","433949","morph21_Oliver/Morris","82","56439","89","yes","1920","13"
"250","","92.22222222222223","92.22222222222223","633.1666666666666","633.1666666666666","black","no","xpyriment","legacy","legacy","0","208","NA","uniform","NA","NA","NA","1","undefined","1","0","89","89","89","0","89","89","89","NA","0","89","NA","NA","0","89","NA","89","0","89","NA","NA","NA","89","0","0","NA","NA","89","89","89","89","89","90","z","Thu Dec  7 15:15:22 2023","Executes Python code","yes","m21-ba-lexicalDecision.osexp","C:\Users\ekealey\Desktop","no","mono","no","18","no","white","no","yes","1080","legacy","89","89","C:/Users/ekealey/Desktop/subject-232.csv","xpyriment","Lentiform Loewenfeld","3.3.11","0","z","space","NA","NA","NA","space","z","546","8412","NA","NA","NA","51824","546","2","legacy","1024","2","48000","-16","AB_m21","232","even","FILL_NW","DOWED","1690","440083","436865","438580","53682","370907","NA","NA","NA","NA","437365","NA","NA","NA","436365","NA","436332","1857","440333","NA","NA","NA","437405","1690","1845","NA","NA","437951","437977","436332","437365","437385","morph21_Oliver/Morris","83","56985","90","yes","1920","16"
"400","","92.3076923076923","92.3076923076923","632.3736263736264","632.3736263736264","black","no","xpyriment","legacy","legacy","0","204","NA","uniform","NA","NA","NA","1","undefined","1","0","90","90","90","0","90","90","90","NA","0","90","NA","NA","0","90","NA","90","0","90","NA","NA","NA","90","0","0","NA","NA","90","90","90","90","90","91","z","Thu Dec  7 15:15:22 2023","Executes Python code","yes","m21-ba-lexicalDecision.osexp","C:\Users\ekealey\Desktop","no","mono","no","18","no","white","no","yes","1080","legacy","90","90","C:/Users/ekealey/Desktop/subject-232.csv","xpyriment","Lentiform Loewenfeld","3.3.11","0","z","space","NA","NA","NA","space","z","561","8412","NA","NA","NA","51824","561","2","legacy","1024","2","48000","-16","AB_m21","232","even","NW_L_COMP","COLDIDY","1690","443637","441904","438580","53682","370907","NA","NA","NA","NA","442406","NA","NA","NA","441402","NA","441370","1857","444037","NA","NA","NA","442446","1690","1845","NA","NA","443008","443032","441370","442406","442426","morph21_Oliver/Morris","84","57546","91","yes","1920","10"
"200","","91.30434782608695","91.30434782608695","633.8152173913044","633.8152173913044","black","no","xpyriment","legacy","legacy","0","203","NA","uniform","NA","NA","NA","0","undefined","0","0","91","91","91","0","91","91","91","NA","0","91","NA","NA","0","91","NA","91","0","91","NA","NA","NA","91","0","0","NA","NA","91","91","91","91","91","92","z","Thu Dec  7 15:15:22 2023","Executes Python code","yes","m21-ba-lexicalDecision.osexp","C:\Users\ekealey\Desktop","no","mono","no","18","no","white","no","yes","1080","legacy","91","91","C:/Users/ekealey/Desktop/subject-232.csv","xpyriment","Lentiform Loewenfeld","3.3.11","0","/","space","NA","NA","NA","space","/","765","8412","NA","NA","NA","51824","765","2","legacy","1024","2","48000","-16","AB_m21","232","even","NW_S_COMP","MELTANGE","1690","447540","445605","438580","53682","370907","NA","NA","NA","NA","446105","NA","NA","NA","445104","NA","445078","1857","447740","NA","NA","NA","446146","1690","1845","NA","NA","446912","446936","445078","446105","446126","morph21_Oliver/Morris","84","58311","92","yes","1920","1"
