"ITI","_prepare","acc","accuracy","average_response_time","avg_rt","background","bidi","canvas_backend","clock_backend","color_backend","compensation","cond_trig","condtrigtime","coordinates","coroutines_cycles","coroutines_duration","coroutines_mean_cycle_duration","correct","correct_instructions_1","correct_new_keyboard_response_1","count_AB_m21","count_ITI","count_blank_screen","count_blink_screen","count_block1","count_break1","count_break2","count_break3_1","count_canvas","count_close_port","count_cond_trigger","count_correct_trigger","count_def_chain","count_end_screen","count_fixation_1","count_getting_started","count_inc_counter","count_instructions_1","count_logger","count_logscript","count_new_inline_script","count_new_inline_script_2","count_new_keyboard_response_1","count_open_port","count_reset_counter_prep","count_reset_counter_run","count_reset_counter_run_1","count_response_trigger_trial","count_responsescreen","count_sequence","count_target_present","count_word_trigger","counter","cresp","datetime","description","disable_garbage_collection","experiment_file","experiment_path","font_bold","font_family","font_italic","font_size","font_underline","foreground","form_clicks","fullscreen","height","keyboard_backend","live_row","live_row_block1","logfile","mouse_backend","opensesame_codename","opensesame_version","repeat_cycle","response","response_break1","response_break2","response_break3_1","response_end_screen","response_instructions_1","response_new_keyboard_response_1","response_time","response_time_break1","response_time_break2","response_time_break3_1","response_time_end_screen","response_time_instructions_1","response_time_new_keyboard_response_1","round_decimals","sampler_backend","sound_buf_size","sound_channels","sound_freq","sound_sample_size","start","subject_nr","subject_parity","targ_type","target","time_AB_m21","time_ITI","time_blank_screen","time_blink_screen","time_block1","time_break1","time_break2","time_break3_1","time_canvas","time_close_port","time_cond_trigger","time_correct_trigger","time_def_chain","time_end_screen","time_fixation_1","time_getting_started","time_inc_counter","time_instructions_1","time_logger","time_logscript","time_new_inline_script","time_new_inline_script_2","time_new_keyboard_response_1","time_open_port","time_reset_counter_prep","time_reset_counter_run","time_reset_counter_run_1","time_response_trigger_trial","time_responsescreen","time_sequence","time_target_present","time_word_trigger","title","total_correct","total_response_time","total_responses","uniform_coordinates","width","word_trig"
"400","","0","0","1200","1200","black","no","xpyriment","legacy","legacy","0","202","NA","uniform","NA","NA","NA","0","undefined","0","0","0","0","0","0","0","0","0","NA","0","0","NA","NA","0","0","NA","0","0","0","NA","NA","NA","0","0","0","NA","NA","0","0","0","0","0","1","/","Mon Feb 26 15:40:22 2024","Executes Python code","yes","m21-ba-lexicalDecision.osexp","C:\Users\ekealey\Desktop","no","mono","no","18","no","white","no","yes","1080","legacy","0","0","C:/Users/ekealey/Desktop/subject-238.csv","xpyriment","Lentiform Loewenfeld","3.3.11","0","None","NA","NA","NA","NA","space","None","1200","NA","NA","NA","NA","148224","1200","2","legacy","1024","2","48000","-16","AB_m21","238","even","CW_L","STYLISH","1814","154564","152196","NA","150200","NA","NA","NA","NA","NA","152696","NA","NA","NA","151694","NA","151661","1973","154964","NA","NA","NA","152737","1814","1961","NA","NA","153937","153962","151660","152696","152717","morph21_Oliver/Morris","0","1200","1","yes","1920","29"
"350","","50","50","1099.5","1099.5","black","no","xpyriment","legacy","legacy","0","206","NA","uniform","NA","NA","NA","1","undefined","1","0","1","1","1","0","1","1","1","NA","0","1","NA","NA","0","1","NA","1","0","1","NA","NA","NA","1","0","0","NA","NA","1","1","1","1","1","2","z","Mon Feb 26 15:40:22 2024","Executes Python code","yes","m21-ba-lexicalDecision.osexp","C:\Users\ekealey\Desktop","no","mono","no","18","no","white","no","yes","1080","legacy","1","1","C:/Users/ekealey/Desktop/subject-238.csv","xpyriment","Lentiform Loewenfeld","3.3.11","0","z","NA","NA","NA","NA","space","z","999","NA","NA","NA","NA","148224","999","2","legacy","1024","2","48000","-16","AB_m21","238","even","NW_L_SIMP","NUTLY","1814","158746","156576","NA","150200","NA","NA","NA","NA","NA","157076","NA","NA","NA","156075","NA","156046","1973","159096","NA","NA","NA","157118","1814","1961","NA","NA","158118","158142","156046","157076","157098","morph21_Oliver/Morris","1","2199","2","yes","1920","14"
"250","","66.66666666666667","66.66666666666667","1070.6666666666667","1070.6666666666667","black","no","xpyriment","legacy","legacy","0","201","NA","uniform","NA","NA","NA","1","undefined","1","0","2","2","2","0","2","2","2","NA","0","2","NA","NA","0","2","NA","2","0","2","NA","NA","NA","2","0","0","NA","NA","2","2","2","2","2","3","/","Mon Feb 26 15:40:22 2024","Executes Python code","yes","m21-ba-lexicalDecision.osexp","C:\Users\ekealey\Desktop","no","mono","no","18","no","white","no","yes","1080","legacy","2","2","C:/Users/ekealey/Desktop/subject-238.csv","xpyriment","Lentiform Loewenfeld","3.3.11","0","/","NA","NA","NA","NA","space","/","1013","NA","NA","NA","NA","148224","1013","2","legacy","1024","2","48000","-16","AB_m21","238","even","CW_S","MILDNESS","1814","164370","160683","162864","150200","NA","NA","NA","NA","NA","161183","NA","NA","NA","160183","NA","160151","1973","164620","NA","NA","NA","161224","1814","1961","NA","NA","162237","162261","160150","161183","161204","morph21_Oliver/Morris","2","3212","3","yes","1920","42"
"250","","75","75","1032.75","1032.75","black","no","xpyriment","legacy","legacy","0","207","NA","uniform","NA","NA","NA","1","undefined","1","0","3","3","3","0","3","3","3","NA","0","3","NA","NA","0","3","NA","3","0","3","NA","NA","NA","3","0","0","NA","NA","3","3","3","3","3","4","/","Mon Feb 26 15:40:22 2024","Executes Python code","yes","m21-ba-lexicalDecision.osexp","C:\Users\ekealey\Desktop","no","mono","no","18","no","white","no","yes","1080","legacy","3","3","C:/Users/ekealey/Desktop/subject-238.csv","xpyriment","Lentiform Loewenfeld","3.3.11","0","/","NA","NA","NA","NA","space","/","919","NA","NA","NA","NA","148224","919","2","legacy","1024","2","48000","-16","AB_m21","238","even","FILL_W","SLIM","1814","168344","166255","162864","150200","NA","NA","NA","NA","NA","166757","NA","NA","NA","165753","NA","165728","1973","168595","NA","NA","NA","166798","1814","1961","NA","NA","167718","167741","165728","166757","166777","morph21_Oliver/Morris","3","4131","4","yes","1920","6"
"300","","80","80","1025.8","1025.8","black","no","xpyriment","legacy","legacy","0","205","NA","uniform","NA","NA","NA","1","undefined","1","0","4","4","4","0","4","4","4","NA","0","4","NA","NA","0","4","NA","4","0","4","NA","NA","NA","4","0","0","NA","NA","4","4","4","4","4","5","z","Mon Feb 26 15:40:22 2024","Executes Python code","yes","m21-ba-lexicalDecision.osexp","C:\Users\ekealey\Desktop","no","mono","no","18","no","white","no","yes","1080","legacy","4","4","C:/Users/ekealey/Desktop/subject-238.csv","xpyriment","Lentiform Loewenfeld","3.3.11","0","z","NA","NA","NA","NA","space","z","998","NA","NA","NA","NA","148224","998","2","legacy","1024","2","48000","-16","AB_m21","238","even","NW_S_SIMP","WINKITY","1814","172331","170161","162864","150200","NA","NA","NA","NA","NA","170663","NA","NA","NA","169659","NA","169632","1973","172631","NA","NA","NA","170703","1814","1961","NA","NA","171701","171726","169632","170663","170683","morph21_Oliver/Morris","4","5129","5","yes","1920","21"
"350","","83.33333333333333","83.33333333333333","1013.3333333333334","1013.3333333333334","black","no","xpyriment","legacy","legacy","0","203","NA","uniform","NA","NA","NA","1","undefined","1","0","5","5","5","0","5","5","5","NA","0","5","NA","NA","0","5","NA","5","0","5","NA","NA","NA","5","0","0","NA","NA","5","5","5","5","5","6","z","Mon Feb 26 15:40:22 2024","Executes Python code","yes","m21-ba-lexicalDecision.osexp","C:\Users\ekealey\Desktop","no","mono","no","18","no","white","no","yes","1080","legacy","5","5","C:/Users/ekealey/Desktop/subject-238.csv","xpyriment","Lentiform Loewenfeld","3.3.11","0","z","NA","NA","NA","NA","space","z","951","NA","NA","NA","NA","148224","951","2","legacy","1024","2","48000","-16","AB_m21","238","even","NW_S_COMP","HUMIDOES","1814","177834","174210","176329","150200","NA","NA","NA","NA","NA","174710","NA","NA","NA","173710","NA","173682","1973","178184","NA","NA","NA","174750","1814","1961","NA","NA","175702","175726","173682","174710","174730","morph21_Oliver/Morris","5","6080","6","yes","1920","25"
"200","","85.71428571428571","85.71428571428571","1011.5714285714286","1011.5714285714286","black","no","xpyriment","legacy","legacy","0","207","NA","uniform","NA","NA","NA","1","undefined","1","0","6","6","6","0","6","6","6","NA","0","6","NA","NA","0","6","NA","6","0","6","NA","NA","NA","6","0","0","NA","NA","6","6","6","6","6","7","/","Mon Feb 26 15:40:22 2024","Executes Python code","yes","m21-ba-lexicalDecision.osexp","C:\Users\ekealey\Desktop","no","mono","no","18","no","white","no","yes","1080","legacy","6","6","C:/Users/ekealey/Desktop/subject-238.csv","xpyriment","Lentiform Loewenfeld","3.3.11","0","/","NA","NA","NA","NA","space","/","1001","NA","NA","NA","NA","148224","1001","2","legacy","1024","2","48000","-16","AB_m21","238","even","FILL_W","STALK","1814","181985","179815","176329","150200","NA","NA","NA","NA","NA","180315","NA","NA","NA","179314","NA","179285","1973","182185","NA","NA","NA","180356","1814","1961","NA","NA","181357","181381","179285","180315","180336","morph21_Oliver/Morris","6","7081","7","yes","1920","27"
"350","","87.5","87.5","978.5","978.5","black","no","xpyriment","legacy","legacy","0","202","NA","uniform","NA","NA","NA","1","undefined","1","0","7","7","7","0","7","7","7","NA","0","7","NA","NA","0","7","NA","7","0","7","NA","NA","NA","7","0","0","NA","NA","7","7","7","7","7","8","/","Mon Feb 26 15:40:22 2024","Executes Python code","yes","m21-ba-lexicalDecision.osexp","C:\Users\ekealey\Desktop","no","mono","no","18","no","white","no","yes","1080","legacy","7","7","C:/Users/ekealey/Desktop/subject-238.csv","xpyriment","Lentiform Loewenfeld","3.3.11","0","/","NA","NA","NA","NA","space","/","747","NA","NA","NA","NA","148224","747","2","legacy","1024","2","48000","-16","AB_m21","238","even","CW_L","PARKING","1814","185697","183781","176329","150200","NA","NA","NA","NA","NA","184281","NA","NA","NA","183280","NA","183254","1973","186047","NA","NA","NA","184322","1814","1961","NA","NA","185069","185094","183254","184281","184302","morph21_Oliver/Morris","7","7828","8","yes","1920","25"
"350","","77.77777777777777","77.77777777777777","1003.1111111111111","1003.1111111111111","black","no","xpyriment","legacy","legacy","0","201","NA","uniform","NA","NA","NA","0","undefined","0","0","8","8","8","0","8","8","8","NA","0","8","NA","NA","0","8","NA","8","0","8","NA","NA","NA","8","0","0","NA","NA","8","8","8","8","8","9","/","Mon Feb 26 15:40:22 2024","Executes Python code","yes","m21-ba-lexicalDecision.osexp","C:\Users\ekealey\Desktop","no","mono","no","18","no","white","no","yes","1080","legacy","8","8","C:/Users/ekealey/Desktop/subject-238.csv","xpyriment","Lentiform Loewenfeld","3.3.11","0","None","NA","NA","NA","NA","space","None","1200","NA","NA","NA","NA","148224","1200","2","legacy","1024","2","48000","-16","AB_m21","238","even","CW_S","LENDER","1814","191507","187634","190002","150200","NA","NA","NA","NA","NA","188134","NA","NA","NA","187134","NA","187106","1973","191857","NA","NA","NA","188175","1814","1961","NA","NA","189375","189399","187106","188134","188155","morph21_Oliver/Morris","7","9028","9","yes","1920","11"
"400","","80","80","971.2","971.2","black","no","xpyriment","legacy","legacy","0","202","NA","uniform","NA","NA","NA","1","undefined","1","0","9","9","9","0","9","9","9","NA","0","9","NA","NA","0","9","NA","9","0","9","NA","NA","NA","9","0","0","NA","NA","9","9","9","9","9","10","/","Mon Feb 26 15:40:22 2024","Executes Python code","yes","m21-ba-lexicalDecision.osexp","C:\Users\ekealey\Desktop","no","mono","no","18","no","white","no","yes","1080","legacy","9","9","C:/Users/ekealey/Desktop/subject-238.csv","xpyriment","Lentiform Loewenfeld","3.3.11","0","/","NA","NA","NA","NA","space","/","684","NA","NA","NA","NA","148224","684","2","legacy","1024","2","48000","-16","AB_m21","238","even","CW_L","QUIETLY","1814","195290","193435","190002","150200","NA","NA","NA","NA","NA","193935","NA","NA","NA","192935","NA","192906","1973","195690","NA","NA","NA","193977","1814","1961","NA","NA","194662","194685","192906","193935","193956","morph21_Oliver/Morris","8","9712","10","yes","1920","36"
"300","","81.81818181818181","81.81818181818181","940.6363636363636","940.6363636363636","black","no","xpyriment","legacy","legacy","0","207","NA","uniform","NA","NA","NA","1","undefined","1","0","10","10","10","0","10","10","10","NA","0","10","NA","NA","0","10","NA","10","0","10","NA","NA","NA","10","0","0","NA","NA","10","10","10","10","10","11","/","Mon Feb 26 15:40:22 2024","Executes Python code","yes","m21-ba-lexicalDecision.osexp","C:\Users\ekealey\Desktop","no","mono","no","18","no","white","no","yes","1080","legacy","10","10","C:/Users/ekealey/Desktop/subject-238.csv","xpyriment","Lentiform Loewenfeld","3.3.11","0","/","NA","NA","NA","NA","space","/","635","NA","NA","NA","NA","148224","635","2","legacy","1024","2","48000","-16","AB_m21","238","even","FILL_W","BOX","1814","199065","197261","190002","150200","NA","NA","NA","NA","NA","197762","NA","NA","NA","196760","NA","196733","1973","199365","NA","NA","NA","197802","1814","1961","NA","NA","198437","198462","196733","197762","197782","morph21_Oliver/Morris","9","10347","11","yes","1920","42"
"400","","75","75","962.25","962.25","black","no","xpyriment","legacy","legacy","0","202","NA","uniform","NA","NA","NA","0","undefined","0","0","11","11","11","0","11","11","11","NA","0","11","NA","NA","0","11","NA","11","0","11","NA","NA","NA","11","0","0","NA","NA","11","11","11","11","11","12","/","Mon Feb 26 15:40:22 2024","Executes Python code","yes","m21-ba-lexicalDecision.osexp","C:\Users\ekealey\Desktop","no","mono","no","18","no","white","no","yes","1080","legacy","11","11","C:/Users/ekealey/Desktop/subject-238.csv","xpyriment","Lentiform Loewenfeld","3.3.11","0","None","NA","NA","NA","NA","space","None","1200","NA","NA","NA","NA","148224","1200","2","legacy","1024","2","48000","-16","AB_m21","238","even","CW_L","COOLING","1814","204875","201003","203370","150200","NA","NA","NA","NA","NA","201503","NA","NA","NA","200503","NA","200472","1973","205275","NA","NA","NA","201544","1814","1961","NA","NA","202744","202767","200471","201503","201524","morph21_Oliver/Morris","9","11547","12","yes","1920","24"
"300","","76.92307692307692","76.92307692307692","949.3846153846154","949.3846153846154","black","no","xpyriment","legacy","legacy","0","208","NA","uniform","NA","NA","NA","1","undefined","1","0","12","12","12","0","12","12","12","NA","0","12","NA","NA","0","12","NA","12","0","12","NA","NA","NA","12","0","0","NA","NA","12","12","12","12","12","13","z","Mon Feb 26 15:40:22 2024","Executes Python code","yes","m21-ba-lexicalDecision.osexp","C:\Users\ekealey\Desktop","no","mono","no","18","no","white","no","yes","1080","legacy","12","12","C:/Users/ekealey/Desktop/subject-238.csv","xpyriment","Lentiform Loewenfeld","3.3.11","0","z","NA","NA","NA","NA","space","z","795","NA","NA","NA","NA","148224","795","2","legacy","1024","2","48000","-16","AB_m21","238","even","FILL_NW","VOGS","1814","208859","206892","203370","150200","NA","NA","NA","NA","NA","207393","NA","NA","NA","206390","NA","206363","1973","209159","NA","NA","NA","207434","1814","1961","NA","NA","208229","208254","206363","207393","207414","morph21_Oliver/Morris","10","12342","13","yes","1920","47"
"350","","78.57142857142857","78.57142857142857","947.7142857142857","947.7142857142857","black","no","xpyriment","legacy","legacy","0","206","NA","uniform","NA","NA","NA","1","undefined","1","0","13","13","13","0","13","13","13","NA","0","13","NA","NA","0","13","NA","13","0","13","NA","NA","NA","13","0","0","NA","NA","13","13","13","13","13","14","z","Mon Feb 26 15:40:22 2024","Executes Python code","yes","m21-ba-lexicalDecision.osexp","C:\Users\ekealey\Desktop","no","mono","no","18","no","white","no","yes","1080","legacy","13","13","C:/Users/ekealey/Desktop/subject-238.csv","xpyriment","Lentiform Loewenfeld","3.3.11","0","z","NA","NA","NA","NA","space","z","926","NA","NA","NA","NA","148224","926","2","legacy","1024","2","48000","-16","AB_m21","238","even","NW_L_SIMP","CRITICANCE","1814","212848","210753","203370","150200","NA","NA","NA","NA","NA","211254","NA","NA","NA","210253","NA","210220","1973","213198","NA","NA","NA","211294","1814","1961","NA","NA","212221","212245","210220","211253","211274","morph21_Oliver/Morris","11","13268","14","yes","1920","22"
"200","","80","80","948.1333333333333","948.1333333333333","black","no","xpyriment","legacy","legacy","0","207","NA","uniform","NA","NA","NA","1","undefined","1","0","14","14","14","0","14","14","14","NA","0","14","NA","NA","0","14","NA","14","0","14","NA","NA","NA","14","0","0","NA","NA","14","14","14","14","14","15","/","Mon Feb 26 15:40:22 2024","Executes Python code","yes","m21-ba-lexicalDecision.osexp","C:\Users\ekealey\Desktop","no","mono","no","18","no","white","no","yes","1080","legacy","14","14","C:/Users/ekealey/Desktop/subject-238.csv","xpyriment","Lentiform Loewenfeld","3.3.11","0","/","NA","NA","NA","NA","space","/","954","NA","NA","NA","NA","148224","954","2","legacy","1024","2","48000","-16","AB_m21","238","even","FILL_W","TEST","1814","218401","214774","216897","150200","NA","NA","NA","NA","NA","215274","NA","NA","NA","214274","NA","214242","1973","218602","NA","NA","NA","215315","1814","1961","NA","NA","216270","216293","214242","215274","215295","morph21_Oliver/Morris","12","14222","15","yes","1920","47"
"400","","75","75","963.875","963.875","black","no","xpyriment","legacy","legacy","0","202","NA","uniform","NA","NA","NA","0","undefined","0","0","15","15","15","0","15","15","15","NA","0","15","NA","NA","0","15","NA","15","0","15","NA","NA","NA","15","0","0","NA","NA","15","15","15","15","15","16","/","Mon Feb 26 15:40:22 2024","Executes Python code","yes","m21-ba-lexicalDecision.osexp","C:\Users\ekealey\Desktop","no","mono","no","18","no","white","no","yes","1080","legacy","15","15","C:/Users/ekealey/Desktop/subject-238.csv","xpyriment","Lentiform Loewenfeld","3.3.11","0","None","NA","NA","NA","NA","space","None","1200","NA","NA","NA","NA","148224","1200","2","legacy","1024","2","48000","-16","AB_m21","238","even","CW_L","DRYNESS","1814","222590","220219","216897","150200","NA","NA","NA","NA","NA","220721","NA","NA","NA","219716","NA","219692","1973","222990","NA","NA","NA","220761","1814","1961","NA","NA","221961","221985","219692","220720","220741","morph21_Oliver/Morris","12","15422","16","yes","1920","42"
"350","","76.47058823529412","76.47058823529412","952.7647058823529","952.7647058823529","black","no","xpyriment","legacy","legacy","0","202","NA","uniform","NA","NA","NA","1","undefined","1","0","16","16","16","0","16","16","16","NA","0","16","NA","NA","0","16","NA","16","0","16","NA","NA","NA","16","0","0","NA","NA","16","16","16","16","16","17","/","Mon Feb 26 15:40:22 2024","Executes Python code","yes","m21-ba-lexicalDecision.osexp","C:\Users\ekealey\Desktop","no","mono","no","18","no","white","no","yes","1080","legacy","16","16","C:/Users/ekealey/Desktop/subject-238.csv","xpyriment","Lentiform Loewenfeld","3.3.11","0","/","NA","NA","NA","NA","space","/","775","NA","NA","NA","NA","148224","775","2","legacy","1024","2","48000","-16","AB_m21","238","even","CW_L","EDITOR","1814","226519","224577","216897","150200","NA","NA","NA","NA","NA","225077","NA","NA","NA","224077","NA","224048","1973","226869","NA","NA","NA","225117","1814","1961","NA","NA","225893","225916","224048","225077","225097","morph21_Oliver/Morris","13","16197","17","yes","1920","45"
"250","","77.77777777777777","77.77777777777777","936.2777777777778","936.2777777777778","black","no","xpyriment","legacy","legacy","0","201","NA","uniform","NA","NA","NA","1","undefined","1","0","17","17","17","0","17","17","17","NA","0","17","NA","NA","0","17","NA","17","0","17","NA","NA","NA","17","0","0","NA","NA","17","17","17","17","17","18","/","Mon Feb 26 15:40:22 2024","Executes Python code","yes","m21-ba-lexicalDecision.osexp","C:\Users\ekealey\Desktop","no","mono","no","18","no","white","no","yes","1080","legacy","17","17","C:/Users/ekealey/Desktop/subject-238.csv","xpyriment","Lentiform Loewenfeld","3.3.11","0","/","NA","NA","NA","NA","space","/","656","NA","NA","NA","NA","148224","656","2","legacy","1024","2","48000","-16","AB_m21","238","even","CW_S","JAILER","1814","231817","228486","230313","150200","NA","NA","NA","NA","NA","228988","NA","NA","NA","227986","NA","227958","1973","232067","NA","NA","NA","229028","1814","1961","NA","NA","229685","229710","227958","228987","229008","morph21_Oliver/Morris","14","16853","18","yes","1920","13"
"400","","73.6842105263158","73.6842105263158","950.1578947368421","950.1578947368421","black","no","xpyriment","legacy","legacy","0","208","NA","uniform","NA","NA","NA","0","undefined","0","0","18","18","18","0","18","18","18","NA","0","18","NA","NA","0","18","NA","18","0","18","NA","NA","NA","18","0","0","NA","NA","18","18","18","18","18","19","z","Mon Feb 26 15:40:22 2024","Executes Python code","yes","m21-ba-lexicalDecision.osexp","C:\Users\ekealey\Desktop","no","mono","no","18","no","white","no","yes","1080","legacy","18","18","C:/Users/ekealey/Desktop/subject-238.csv","xpyriment","Lentiform Loewenfeld","3.3.11","0","None","NA","NA","NA","NA","space","None","1200","NA","NA","NA","NA","148224","1200","2","legacy","1024","2","48000","-16","AB_m21","238","even","FILL_NW","BALFS","1814","236031","233660","230313","150200","NA","NA","NA","NA","NA","234160","NA","NA","NA","233160","NA","233133","1973","236431","NA","NA","NA","234201","1814","1961","NA","NA","235401","235426","233133","234160","234181","morph21_Oliver/Morris","14","18053","19","yes","1920","2"
"300","","70","70","962.65","962.65","black","no","xpyriment","legacy","legacy","0","204","NA","uniform","NA","NA","NA","0","undefined","0","0","19","19","19","0","19","19","19","NA","0","19","NA","NA","0","19","NA","19","0","19","NA","NA","NA","19","0","0","NA","NA","19","19","19","19","19","20","z","Mon Feb 26 15:40:22 2024","Executes Python code","yes","m21-ba-lexicalDecision.osexp","C:\Users\ekealey\Desktop","no","mono","no","18","no","white","no","yes","1080","legacy","19","19","C:/Users/ekealey/Desktop/subject-238.csv","xpyriment","Lentiform Loewenfeld","3.3.11","0","None","NA","NA","NA","NA","space","None","1200","NA","NA","NA","NA","148224","1200","2","legacy","1024","2","48000","-16","AB_m21","238","even","NW_L_COMP","ADDMANT","1814","240363","237995","230313","150200","NA","NA","NA","NA","NA","238496","NA","NA","NA","237493","NA","237464","1973","240663","NA","NA","NA","238536","1814","1961","NA","NA","239736","239760","237464","238495","238516","morph21_Oliver/Morris","14","19253","20","yes","1920","13"
"300","","71.42857142857143","71.42857142857143","962.047619047619","962.047619047619","black","no","xpyriment","legacy","legacy","0","206","NA","uniform","NA","NA","NA","1","undefined","1","0","20","20","20","0","20","20","20","NA","0","20","NA","NA","0","20","NA","20","0","20","NA","NA","NA","20","0","0","NA","NA","20","20","20","20","20","21","z","Mon Feb 26 15:40:22 2024","Executes Python code","yes","m21-ba-lexicalDecision.osexp","C:\Users\ekealey\Desktop","no","mono","no","18","no","white","no","yes","1080","legacy","20","20","C:/Users/ekealey/Desktop/subject-238.csv","xpyriment","Lentiform Loewenfeld","3.3.11","0","z","NA","NA","NA","NA","space","z","950","NA","NA","NA","NA","148224","950","2","legacy","1024","2","48000","-16","AB_m21","238","even","NW_L_SIMP","EARIST","1814","245859","242233","244352","150200","NA","NA","NA","NA","NA","242734","NA","NA","NA","241732","NA","241705","1973","246159","NA","NA","NA","242775","1814","1961","NA","NA","243725","243749","241705","242734","242755","morph21_Oliver/Morris","15","20203","21","yes","1920","12"
"300","","72.72727272727273","72.72727272727273","965.3636363636364","965.3636363636364","black","no","xpyriment","legacy","legacy","0","202","NA","uniform","NA","NA","NA","1","undefined","1","0","21","21","21","0","21","21","21","NA","0","21","NA","NA","0","21","NA","21","0","21","NA","NA","NA","21","0","0","NA","NA","21","21","21","21","21","22","/","Mon Feb 26 15:40:22 2024","Executes Python code","yes","m21-ba-lexicalDecision.osexp","C:\Users\ekealey\Desktop","no","mono","no","18","no","white","no","yes","1080","legacy","21","21","C:/Users/ekealey/Desktop/subject-238.csv","xpyriment","Lentiform Loewenfeld","3.3.11","0","/","NA","NA","NA","NA","space","/","1035","NA","NA","NA","NA","148224","1035","2","legacy","1024","2","48000","-16","AB_m21","238","even","CW_L","COMPOSER","1814","249957","247750","244352","150200","NA","NA","NA","NA","NA","248250","NA","NA","NA","247250","NA","247218","1973","250257","NA","NA","NA","248290","1814","1961","NA","NA","249325","249352","247218","248250","248270","morph21_Oliver/Morris","16","21238","22","yes","1920","6"
"300","","73.91304347826087","73.91304347826087","948.4347826086956","948.4347826086956","black","no","xpyriment","legacy","legacy","0","201","NA","uniform","NA","NA","NA","1","undefined","1","0","22","22","22","0","22","22","22","NA","0","22","NA","NA","0","22","NA","22","0","22","NA","NA","NA","22","0","0","NA","NA","22","22","22","22","22","23","/","Mon Feb 26 15:40:22 2024","Executes Python code","yes","m21-ba-lexicalDecision.osexp","C:\Users\ekealey\Desktop","no","mono","no","18","no","white","no","yes","1080","legacy","22","22","C:/Users/ekealey/Desktop/subject-238.csv","xpyriment","Lentiform Loewenfeld","3.3.11","0","/","NA","NA","NA","NA","space","/","576","NA","NA","NA","NA","148224","576","2","legacy","1024","2","48000","-16","AB_m21","238","even","CW_S","MAGICAL","1814","253594","251848","244352","150200","NA","NA","NA","NA","NA","252348","NA","NA","NA","251348","NA","251318","1973","253895","NA","NA","NA","252389","1814","1961","NA","NA","252965","252991","251317","252348","252369","morph21_Oliver/Morris","17","21814","23","yes","1920","4"
"300","","75","75","940.75","940.75","black","no","xpyriment","legacy","legacy","0","206","NA","uniform","NA","NA","NA","1","undefined","1","0","23","23","23","0","23","23","23","NA","0","23","NA","NA","0","23","NA","23","0","23","NA","NA","NA","23","0","0","NA","NA","23","23","23","23","23","24","z","Mon Feb 26 15:40:22 2024","Executes Python code","yes","m21-ba-lexicalDecision.osexp","C:\Users\ekealey\Desktop","no","mono","no","18","no","white","no","yes","1080","legacy","23","23","C:/Users/ekealey/Desktop/subject-238.csv","xpyriment","Lentiform Loewenfeld","3.3.11","0","z","NA","NA","NA","NA","space","z","764","NA","NA","NA","NA","148224","764","2","legacy","1024","2","48000","-16","AB_m21","238","even","NW_L_SIMP","BEANISH","1814","258944","255508","257440","150200","NA","NA","NA","NA","NA","256008","NA","NA","NA","255008","NA","254979","1973","259244","NA","NA","NA","256048","1814","1961","NA","NA","256813","256837","254979","256008","256028","morph21_Oliver/Morris","18","22578","24","yes","1920","8"
"250","","72","72","951.12","951.12","black","no","xpyriment","legacy","legacy","0","201","NA","uniform","NA","NA","NA","0","undefined","0","0","24","24","24","0","24","24","24","NA","0","24","NA","NA","0","24","NA","24","0","24","NA","NA","NA","24","0","0","NA","NA","24","24","24","24","24","25","/","Mon Feb 26 15:40:22 2024","Executes Python code","yes","m21-ba-lexicalDecision.osexp","C:\Users\ekealey\Desktop","no","mono","no","18","no","white","no","yes","1080","legacy","24","24","C:/Users/ekealey/Desktop/subject-238.csv","xpyriment","Lentiform Loewenfeld","3.3.11","0","None","NA","NA","NA","NA","space","None","1200","NA","NA","NA","NA","148224","1200","2","legacy","1024","2","48000","-16","AB_m21","238","even","CW_S","PLANNER","1814","263186","260819","257440","150200","NA","NA","NA","NA","NA","261319","NA","NA","NA","260318","NA","260289","1973","263436","NA","NA","NA","261359","1814","1961","NA","NA","262559","262582","260289","261319","261339","morph21_Oliver/Morris","18","23778","25","yes","1920","22"
"200","","69.23076923076923","69.23076923076923","960.6923076923077","960.6923076923077","black","no","xpyriment","legacy","legacy","0","203","NA","uniform","NA","NA","NA","0","undefined","0","0","25","25","25","0","25","25","25","NA","0","25","NA","NA","0","25","NA","25","0","25","NA","NA","NA","25","0","0","NA","NA","25","25","25","25","25","26","z","Mon Feb 26 15:40:22 2024","Executes Python code","yes","m21-ba-lexicalDecision.osexp","C:\Users\ekealey\Desktop","no","mono","no","18","no","white","no","yes","1080","legacy","25","25","C:/Users/ekealey/Desktop/subject-238.csv","xpyriment","Lentiform Loewenfeld","3.3.11","0","None","NA","NA","NA","NA","space","None","1200","NA","NA","NA","NA","148224","1200","2","legacy","1024","2","48000","-16","AB_m21","238","even","NW_S_COMP","HAPPENANGE","1814","267365","264994","257440","150200","NA","NA","NA","NA","NA","265496","NA","NA","NA","264492","NA","264466","1973","267566","NA","NA","NA","265537","1814","1961","NA","NA","266737","266762","264466","265496","265517","morph21_Oliver/Morris","18","24978","26","yes","1920","2"
"400","","66.66666666666667","66.66666666666667","958.1481481481482","958.1481481481482","black","no","xpyriment","legacy","legacy","0","206","NA","uniform","NA","NA","NA","0","undefined","0","0","26","26","26","0","26","26","26","NA","0","26","NA","NA","0","26","NA","26","0","26","NA","NA","NA","26","0","0","NA","NA","26","26","26","26","26","27","z","Mon Feb 26 15:40:22 2024","Executes Python code","yes","m21-ba-lexicalDecision.osexp","C:\Users\ekealey\Desktop","no","mono","no","18","no","white","no","yes","1080","legacy","26","26","C:/Users/ekealey/Desktop/subject-238.csv","xpyriment","Lentiform Loewenfeld","3.3.11","0","/","NA","NA","NA","NA","space","/","892","NA","NA","NA","NA","148224","892","2","legacy","1024","2","48000","-16","AB_m21","238","even","NW_L_SIMP","POORITY","1814","272714","269148","271210","150200","NA","NA","NA","NA","NA","269648","NA","NA","NA","268648","NA","268616","1973","273114","NA","NA","NA","269689","1814","1961","NA","NA","270581","270606","268616","269648","269669","morph21_Oliver/Morris","18","25870","27","yes","1920","13"
"250","","64.28571428571429","64.28571428571429","966.7857142857143","966.7857142857143","black","no","xpyriment","legacy","legacy","0","203","NA","uniform","NA","NA","NA","0","undefined","0","0","27","27","27","0","27","27","27","NA","0","27","NA","NA","0","27","NA","27","0","27","NA","NA","NA","27","0","0","NA","NA","27","27","27","27","27","28","z","Mon Feb 26 15:40:22 2024","Executes Python code","yes","m21-ba-lexicalDecision.osexp","C:\Users\ekealey\Desktop","no","mono","no","18","no","white","no","yes","1080","legacy","27","27","C:/Users/ekealey/Desktop/subject-238.csv","xpyriment","Lentiform Loewenfeld","3.3.11","0","None","NA","NA","NA","NA","space","None","1200","NA","NA","NA","NA","148224","1200","2","legacy","1024","2","48000","-16","AB_m21","238","even","NW_S_COMP","BRANCHEL","1814","277095","274723","271210","150200","NA","NA","NA","NA","NA","275225","NA","NA","NA","274222","NA","274196","1973","277345","NA","NA","NA","275266","1814","1961","NA","NA","276466","276490","274196","275225","275246","morph21_Oliver/Morris","18","27070","28","yes","1920","16"
"200","","62.06896551724138","62.06896551724138","953.3103448275862","953.3103448275862","black","no","xpyriment","legacy","legacy","0","206","NA","uniform","NA","NA","NA","0","undefined","0","0","28","28","28","0","28","28","28","NA","0","28","NA","NA","0","28","NA","28","0","28","NA","NA","NA","28","0","0","NA","NA","28","28","28","28","28","29","z","Mon Feb 26 15:40:22 2024","Executes Python code","yes","m21-ba-lexicalDecision.osexp","C:\Users\ekealey\Desktop","no","mono","no","18","no","white","no","yes","1080","legacy","28","28","C:/Users/ekealey/Desktop/subject-238.csv","xpyriment","Lentiform Loewenfeld","3.3.11","0","/","NA","NA","NA","NA","space","/","576","NA","NA","NA","NA","148224","576","2","legacy","1024","2","48000","-16","AB_m21","238","even","NW_L_SIMP","GROWIST","1814","280673","278927","271210","150200","NA","NA","NA","NA","NA","279428","NA","NA","NA","278424","NA","278398","1973","280873","NA","NA","NA","279468","1814","1961","NA","NA","280045","280070","278398","279428","279448","morph21_Oliver/Morris","18","27646","29","yes","1920","20"
"350","","63.333333333333336","63.333333333333336","957.5","957.5","black","no","xpyriment","legacy","legacy","0","203","NA","uniform","NA","NA","NA","1","undefined","1","0","29","29","29","0","29","29","29","NA","0","29","NA","NA","0","29","NA","29","0","29","NA","NA","NA","29","0","0","NA","NA","29","29","29","29","29","30","z","Mon Feb 26 15:40:22 2024","Executes Python code","yes","m21-ba-lexicalDecision.osexp","C:\Users\ekealey\Desktop","no","mono","no","18","no","white","no","yes","1080","legacy","29","29","C:/Users/ekealey/Desktop/subject-238.csv","xpyriment","Lentiform Loewenfeld","3.3.11","0","z","NA","NA","NA","NA","space","z","1079","NA","NA","NA","NA","148224","1079","2","legacy","1024","2","48000","-16","AB_m21","238","even","NW_S_COMP","HEIGHTENGE","1814","286204","282450","284699","150200","NA","NA","NA","NA","NA","282950","NA","NA","NA","281950","NA","281925","1973","286554","NA","NA","NA","282990","1814","1961","NA","NA","284069","284094","281925","282950","282970","morph21_Oliver/Morris","19","28725","30","yes","1920","18"
"300","","64.51612903225806","64.51612903225806","954.1935483870968","954.1935483870968","black","no","xpyriment","legacy","legacy","0","205","NA","uniform","NA","NA","NA","1","undefined","1","0","30","30","30","0","30","30","30","NA","0","30","NA","NA","0","30","NA","30","0","30","NA","NA","NA","30","0","0","NA","NA","30","30","30","30","30","31","z","Mon Feb 26 15:40:22 2024","Executes Python code","yes","m21-ba-lexicalDecision.osexp","C:\Users\ekealey\Desktop","no","mono","no","18","no","white","no","yes","1080","legacy","30","30","C:/Users/ekealey/Desktop/subject-238.csv","xpyriment","Lentiform Loewenfeld","3.3.11","0","z","NA","NA","NA","NA","space","z","855","NA","NA","NA","NA","148224","855","2","legacy","1024","2","48000","-16","AB_m21","238","even","NW_S_SIMP","SOCKETER","1814","290155","288130","284699","150200","NA","NA","NA","NA","NA","288630","NA","NA","NA","287630","NA","287601","1973","290455","NA","NA","NA","288670","1814","1961","NA","NA","289525","289550","287601","288630","288650","morph21_Oliver/Morris","20","29580","31","yes","1920","1"
"350","","65.625","65.625","955.4375","955.4375","black","no","xpyriment","legacy","legacy","0","208","NA","uniform","NA","NA","NA","1","undefined","1","0","31","31","31","0","31","31","31","NA","0","31","NA","NA","0","31","NA","31","0","31","NA","NA","NA","31","0","0","NA","NA","31","31","31","31","31","32","z","Mon Feb 26 15:40:22 2024","Executes Python code","yes","m21-ba-lexicalDecision.osexp","C:\Users\ekealey\Desktop","no","mono","no","18","no","white","no","yes","1080","legacy","31","31","C:/Users/ekealey/Desktop/subject-238.csv","xpyriment","Lentiform Loewenfeld","3.3.11","0","z","NA","NA","NA","NA","space","z","994","NA","NA","NA","NA","148224","994","2","legacy","1024","2","48000","-16","AB_m21","238","even","FILL_NW","KRAISE","1814","294194","292029","284699","150200","NA","NA","NA","NA","NA","292529","NA","NA","NA","291527","NA","291500","1973","294544","NA","NA","NA","292570","1814","1961","NA","NA","293565","293589","291500","292529","292550","morph21_Oliver/Morris","21","30574","32","yes","1920","33"
"400","","63.63636363636363","63.63636363636363","948.060606060606","948.060606060606","black","no","xpyriment","legacy","legacy","0","206","NA","uniform","NA","NA","NA","0","undefined","0","0","32","32","32","0","32","32","32","NA","0","32","NA","NA","0","32","NA","32","0","32","NA","NA","NA","32","0","0","NA","NA","32","32","32","32","32","33","z","Mon Feb 26 15:40:22 2024","Executes Python code","yes","m21-ba-lexicalDecision.osexp","C:\Users\ekealey\Desktop","no","mono","no","18","no","white","no","yes","1080","legacy","32","32","C:/Users/ekealey/Desktop/subject-238.csv","xpyriment","Lentiform Loewenfeld","3.3.11","0","/","NA","NA","NA","NA","space","/","712","NA","NA","NA","NA","148224","712","2","legacy","1024","2","48000","-16","AB_m21","238","even","NW_L_SIMP","VALIDER","1814","299504","296119","298001","150200","NA","NA","NA","NA","NA","296620","NA","NA","NA","295619","NA","295588","1973","299904","NA","NA","NA","296660","1814","1961","NA","NA","297373","297397","295588","296620","296640","morph21_Oliver/Morris","21","31286","33","yes","1920","23"
"400","","64.70588235294117","64.70588235294117","944.9411764705883","944.9411764705883","black","no","xpyriment","legacy","legacy","0","207","NA","uniform","NA","NA","NA","1","undefined","1","0","33","33","33","0","33","33","33","NA","0","33","NA","NA","0","33","NA","33","0","33","NA","NA","NA","33","0","0","NA","NA","33","33","33","33","33","34","/","Mon Feb 26 15:40:22 2024","Executes Python code","yes","m21-ba-lexicalDecision.osexp","C:\Users\ekealey\Desktop","no","mono","no","18","no","white","no","yes","1080","legacy","33","33","C:/Users/ekealey/Desktop/subject-238.csv","xpyriment","Lentiform Loewenfeld","3.3.11","0","/","NA","NA","NA","NA","space","/","842","NA","NA","NA","NA","148224","842","2","legacy","1024","2","48000","-16","AB_m21","238","even","FILL_W","CRUNCH","1814","303531","301517","298001","150200","NA","NA","NA","NA","NA","302017","NA","NA","NA","301017","NA","300988","1973","303931","NA","NA","NA","302058","1814","1961","NA","NA","302901","302926","300988","302017","302038","morph21_Oliver/Morris","22","32128","34","yes","1920","20"
"200","","62.857142857142854","62.857142857142854","952.2285714285714","952.2285714285714","black","no","xpyriment","legacy","legacy","0","201","NA","uniform","NA","NA","NA","0","undefined","0","0","34","34","34","0","34","34","34","NA","0","34","NA","NA","0","34","NA","34","0","34","NA","NA","NA","34","0","0","NA","NA","34","34","34","34","34","35","/","Mon Feb 26 15:40:22 2024","Executes Python code","yes","m21-ba-lexicalDecision.osexp","C:\Users\ekealey\Desktop","no","mono","no","18","no","white","no","yes","1080","legacy","34","34","C:/Users/ekealey/Desktop/subject-238.csv","xpyriment","Lentiform Loewenfeld","3.3.11","0","None","NA","NA","NA","NA","space","None","1200","NA","NA","NA","NA","148224","1200","2","legacy","1024","2","48000","-16","AB_m21","238","even","CW_S","BOLDNESS","1814","307862","305495","298001","150200","NA","NA","NA","NA","NA","305996","NA","NA","NA","304994","NA","304966","1973","308063","NA","NA","NA","306036","1814","1961","NA","NA","307236","307259","304966","305996","306016","morph21_Oliver/Morris","22","33328","35","yes","1920","41"
"250","","63.888888888888886","63.888888888888886","952.8888888888889","952.8888888888889","black","no","xpyriment","legacy","legacy","0","204","NA","uniform","NA","NA","NA","1","undefined","1","0","35","35","35","0","35","35","35","NA","0","35","NA","NA","0","35","NA","35","0","35","NA","NA","NA","35","0","0","NA","NA","35","35","35","35","35","36","z","Mon Feb 26 15:40:22 2024","Executes Python code","yes","m21-ba-lexicalDecision.osexp","C:\Users\ekealey\Desktop","no","mono","no","18","no","white","no","yes","1080","legacy","35","35","C:/Users/ekealey/Desktop/subject-238.csv","xpyriment","Lentiform Loewenfeld","3.3.11","0","z","NA","NA","NA","NA","space","z","976","NA","NA","NA","NA","148224","976","2","legacy","1024","2","48000","-16","AB_m21","238","even","NW_L_COMP","MUDLA","1814","313290","309640","311784","150200","NA","NA","NA","NA","NA","310140","NA","NA","NA","309140","NA","309111","1973","313540","NA","NA","NA","310180","1814","1961","NA","NA","311158","311181","309111","310140","310160","morph21_Oliver/Morris","23","34304","36","yes","1920","12"
"250","","64.86486486486487","64.86486486486487","947.4324324324324","947.4324324324324","black","no","xpyriment","legacy","legacy","0","207","NA","uniform","NA","NA","NA","1","undefined","1","0","36","36","36","0","36","36","36","NA","0","36","NA","NA","0","36","NA","36","0","36","NA","NA","NA","36","0","0","NA","NA","36","36","36","36","36","37","/","Mon Feb 26 15:40:22 2024","Executes Python code","yes","m21-ba-lexicalDecision.osexp","C:\Users\ekealey\Desktop","no","mono","no","18","no","white","no","yes","1080","legacy","36","36","C:/Users/ekealey/Desktop/subject-238.csv","xpyriment","Lentiform Loewenfeld","3.3.11","0","/","NA","NA","NA","NA","space","/","751","NA","NA","NA","NA","148224","751","2","legacy","1024","2","48000","-16","AB_m21","238","even","FILL_W","FIERCE","1814","317048","315128","311784","150200","NA","NA","NA","NA","NA","315628","NA","NA","NA","314627","NA","314601","1973","317298","NA","NA","NA","315669","1814","1961","NA","NA","316421","316445","314601","315628","315649","morph21_Oliver/Morris","24","35055","37","yes","1920","24"
"400","","65.78947368421052","65.78947368421052","938.7105263157895","938.7105263157895","black","no","xpyriment","legacy","legacy","0","207","NA","uniform","NA","NA","NA","1","undefined","1","0","37","37","37","0","37","37","37","NA","0","37","NA","NA","0","37","NA","37","0","37","NA","NA","NA","37","0","0","NA","NA","37","37","37","37","37","38","/","Mon Feb 26 15:40:22 2024","Executes Python code","yes","m21-ba-lexicalDecision.osexp","C:\Users\ekealey\Desktop","no","mono","no","18","no","white","no","yes","1080","legacy","37","37","C:/Users/ekealey/Desktop/subject-238.csv","xpyriment","Lentiform Loewenfeld","3.3.11","0","/","NA","NA","NA","NA","space","/","616","NA","NA","NA","NA","148224","616","2","legacy","1024","2","48000","-16","AB_m21","238","even","FILL_W","FLIRT","1814","320658","318871","311784","150200","NA","NA","NA","NA","NA","319371","NA","NA","NA","318369","NA","318341","1973","321058","NA","NA","NA","319412","1814","1961","NA","NA","320029","320053","318341","319371","319392","morph21_Oliver/Morris","25","35671","38","yes","1920","1"
"350","","66.66666666666667","66.66666666666667","939.6153846153846","939.6153846153846","black","no","xpyriment","legacy","legacy","0","201","NA","uniform","NA","NA","NA","1","undefined","1","0","38","38","38","0","38","38","38","NA","0","38","NA","NA","0","38","NA","38","0","38","NA","NA","NA","38","0","0","NA","NA","38","38","38","38","38","39","/","Mon Feb 26 15:40:22 2024","Executes Python code","yes","m21-ba-lexicalDecision.osexp","C:\Users\ekealey\Desktop","no","mono","no","18","no","white","no","yes","1080","legacy","38","38","C:/Users/ekealey/Desktop/subject-238.csv","xpyriment","Lentiform Loewenfeld","3.3.11","0","/","NA","NA","NA","NA","space","/","974","NA","NA","NA","NA","148224","974","2","legacy","1024","2","48000","-16","AB_m21","238","even","CW_S","DULLNESS","1814","326312","322667","324808","150200","NA","NA","NA","NA","NA","323167","NA","NA","NA","322166","NA","322139","1973","326662","NA","NA","NA","323207","1814","1961","NA","NA","324181","324205","322139","323167","323187","morph21_Oliver/Morris","26","36645","39","yes","1920","43"
"250","","65","65","946.125","946.125","black","no","xpyriment","legacy","legacy","0","201","NA","uniform","NA","NA","NA","0","undefined","0","0","39","39","39","0","39","39","39","NA","0","39","NA","NA","0","39","NA","39","0","39","NA","NA","NA","39","0","0","NA","NA","39","39","39","39","39","40","/","Mon Feb 26 15:40:22 2024","Executes Python code","yes","m21-ba-lexicalDecision.osexp","C:\Users\ekealey\Desktop","no","mono","no","18","no","white","no","yes","1080","legacy","39","39","C:/Users/ekealey/Desktop/subject-238.csv","xpyriment","Lentiform Loewenfeld","3.3.11","0","None","NA","NA","NA","NA","space","None","1200","NA","NA","NA","NA","148224","1200","2","legacy","1024","2","48000","-16","AB_m21","238","even","CW_S","TOSSING","1814","330678","328311","324808","150200","NA","NA","NA","NA","NA","328811","NA","NA","NA","327810","NA","327780","1973","330929","NA","NA","NA","328851","1814","1961","NA","NA","330051","330075","327780","328811","328831","morph21_Oliver/Morris","26","37845","40","yes","1920","26"
"250","","65.85365853658537","65.85365853658537","939.1219512195122","939.1219512195122","black","no","xpyriment","legacy","legacy","0","207","NA","uniform","NA","NA","NA","1","undefined","1","0","40","40","40","0","40","40","40","NA","0","40","NA","NA","0","40","NA","40","0","40","NA","NA","NA","40","0","0","NA","NA","40","40","40","40","40","41","/","Mon Feb 26 15:40:22 2024","Executes Python code","yes","m21-ba-lexicalDecision.osexp","C:\Users\ekealey\Desktop","no","mono","no","18","no","white","no","yes","1080","legacy","40","40","C:/Users/ekealey/Desktop/subject-238.csv","xpyriment","Lentiform Loewenfeld","3.3.11","0","/","NA","NA","NA","NA","space","/","659","NA","NA","NA","NA","148224","659","2","legacy","1024","2","48000","-16","AB_m21","238","even","FILL_W","TREAT","1814","334368","332540","324808","150200","NA","NA","NA","NA","NA","333041","NA","NA","NA","332040","NA","332012","1973","334618","NA","NA","NA","333081","1814","1961","NA","NA","333741","333765","332012","333041","333061","morph21_Oliver/Morris","27","38504","41","yes","1920","48"
"350","","66.66666666666667","66.66666666666667","929.9047619047619","929.9047619047619","black","no","xpyriment","legacy","legacy","0","202","NA","uniform","NA","NA","NA","1","undefined","1","0","41","41","41","0","41","41","41","NA","0","41","NA","NA","0","41","NA","41","0","41","NA","NA","NA","41","0","0","NA","NA","41","41","41","41","41","42","/","Mon Feb 26 15:40:22 2024","Executes Python code","yes","m21-ba-lexicalDecision.osexp","C:\Users\ekealey\Desktop","no","mono","no","18","no","white","no","yes","1080","legacy","41","41","C:/Users/ekealey/Desktop/subject-238.csv","xpyriment","Lentiform Loewenfeld","3.3.11","0","/","NA","NA","NA","NA","space","/","552","NA","NA","NA","NA","148224","552","2","legacy","1024","2","48000","-16","AB_m21","238","even","CW_L","KICKING","1814","339417","336190","337914","150200","NA","NA","NA","NA","NA","336692","NA","NA","NA","335689","NA","335663","1973","339768","NA","NA","NA","336732","1814","1961","NA","NA","337285","337310","335663","336692","336712","morph21_Oliver/Morris","28","39056","42","yes","1920","23"
"200","","67.44186046511628","67.44186046511628","925.5116279069767","925.5116279069767","black","no","xpyriment","legacy","legacy","0","208","NA","uniform","NA","NA","NA","1","undefined","1","0","42","42","42","0","42","42","42","NA","0","42","NA","NA","0","42","NA","42","0","42","NA","NA","NA","42","0","0","NA","NA","42","42","42","42","42","43","z","Mon Feb 26 15:40:22 2024","Executes Python code","yes","m21-ba-lexicalDecision.osexp","C:\Users\ekealey\Desktop","no","mono","no","18","no","white","no","yes","1080","legacy","42","42","C:/Users/ekealey/Desktop/subject-238.csv","xpyriment","Lentiform Loewenfeld","3.3.11","0","z","NA","NA","NA","NA","space","z","741","NA","NA","NA","NA","148224","741","2","legacy","1024","2","48000","-16","AB_m21","238","even","FILL_NW","VUNKS","1814","343259","341347","337914","150200","NA","NA","NA","NA","NA","341847","NA","NA","NA","340847","NA","340820","1973","343459","NA","NA","NA","341887","1814","1961","NA","NA","342629","342655","340820","341847","341867","morph21_Oliver/Morris","29","39797","43","yes","1920","49"
"300","","65.9090909090909","65.9090909090909","918.7727272727273","918.7727272727273","black","no","xpyriment","legacy","legacy","0","208","NA","uniform","NA","NA","NA","0","undefined","0","0","43","43","43","0","43","43","43","NA","0","43","NA","NA","0","43","NA","43","0","43","NA","NA","NA","43","0","0","NA","NA","43","43","43","43","43","44","z","Mon Feb 26 15:40:22 2024","Executes Python code","yes","m21-ba-lexicalDecision.osexp","C:\Users\ekealey\Desktop","no","mono","no","18","no","white","no","yes","1080","legacy","43","43","C:/Users/ekealey/Desktop/subject-238.csv","xpyriment","Lentiform Loewenfeld","3.3.11","0","/","NA","NA","NA","NA","space","/","629","NA","NA","NA","NA","148224","629","2","legacy","1024","2","48000","-16","AB_m21","238","even","FILL_NW","SCURE","1814","346827","345025","337914","150200","NA","NA","NA","NA","NA","345527","NA","NA","NA","344523","NA","344497","1973","347127","NA","NA","NA","345568","1814","1961","NA","NA","346197","346222","344497","345527","345548","morph21_Oliver/Morris","29","40426","44","yes","1920","41"
"350","","66.66666666666667","66.66666666666667","911.8222222222222","911.8222222222222","black","no","xpyriment","legacy","legacy","0","202","NA","uniform","NA","NA","NA","1","undefined","1","0","44","44","44","0","44","44","44","NA","0","44","NA","NA","0","44","NA","44","0","44","NA","NA","NA","44","0","0","NA","NA","44","44","44","44","44","45","/","Mon Feb 26 15:40:22 2024","Executes Python code","yes","m21-ba-lexicalDecision.osexp","C:\Users\ekealey\Desktop","no","mono","no","18","no","white","no","yes","1080","legacy","44","44","C:/Users/ekealey/Desktop/subject-238.csv","xpyriment","Lentiform Loewenfeld","3.3.11","0","/","NA","NA","NA","NA","space","/","606","NA","NA","NA","NA","148224","606","2","legacy","1024","2","48000","-16","AB_m21","238","even","CW_L","HUNTER","1814","352047","348769","350544","150200","NA","NA","NA","NA","NA","349270","NA","NA","NA","348269","NA","348242","1973","352397","NA","NA","NA","349310","1814","1961","NA","NA","349917","349940","348242","349269","349290","morph21_Oliver/Morris","30","41032","45","yes","1920","10"
"250","","67.3913043478261","67.3913043478261","912.7608695652174","912.7608695652174","black","no","xpyriment","legacy","legacy","0","206","NA","uniform","NA","NA","NA","1","undefined","1","0","45","45","45","0","45","45","45","NA","0","45","NA","NA","0","45","NA","45","0","45","NA","NA","NA","45","0","0","NA","NA","45","45","45","45","45","46","z","Mon Feb 26 15:40:22 2024","Executes Python code","yes","m21-ba-lexicalDecision.osexp","C:\Users\ekealey\Desktop","no","mono","no","18","no","white","no","yes","1080","legacy","45","45","C:/Users/ekealey/Desktop/subject-238.csv","xpyriment","Lentiform Loewenfeld","3.3.11","0","z","NA","NA","NA","NA","space","z","955","NA","NA","NA","NA","148224","955","2","legacy","1024","2","48000","-16","AB_m21","238","even","NW_L_SIMP"," DRESSORY","1814","356138","354012","350544","150200","NA","NA","NA","NA","NA","354512","NA","NA","NA","353512","NA","353483","1973","356388","NA","NA","NA","354554","1814","1961","NA","NA","355509","355535","353483","354512","354534","morph21_Oliver/Morris","31","41987","46","yes","1920","21"
"250","","65.95744680851064","65.95744680851064","916.3617021276596","916.3617021276596","black","no","xpyriment","legacy","legacy","0","205","NA","uniform","NA","NA","NA","0","undefined","0","0","46","46","46","0","46","46","46","NA","0","46","NA","NA","0","46","NA","46","0","46","NA","NA","NA","46","0","0","NA","NA","46","46","46","46","46","47","z","Mon Feb 26 15:40:22 2024","Executes Python code","yes","m21-ba-lexicalDecision.osexp","C:\Users\ekealey\Desktop","no","mono","no","18","no","white","no","yes","1080","legacy","46","46","C:/Users/ekealey/Desktop/subject-238.csv","xpyriment","Lentiform Loewenfeld","3.3.11","0","/","NA","NA","NA","NA","space","/","1082","NA","NA","NA","NA","148224","1082","2","legacy","1024","2","48000","-16","AB_m21","238","even","NW_S_SIMP","DIGORY","1814","360220","357965","350544","150200","NA","NA","NA","NA","NA","358466","NA","NA","NA","357463","NA","357436","1973","360470","NA","NA","NA","358506","1814","1961","NA","NA","359588","359615","357435","358466","358486","morph21_Oliver/Morris","31","43069","47","yes","1920","11"
"200","","66.66666666666667","66.66666666666667","916.25","916.25","black","no","xpyriment","legacy","legacy","0","204","NA","uniform","NA","NA","NA","1","undefined","1","0","47","47","47","0","47","47","47","NA","0","47","NA","NA","0","47","NA","47","0","47","NA","NA","NA","47","0","0","NA","NA","47","47","47","47","47","48","z","Mon Feb 26 15:40:22 2024","Executes Python code","yes","m21-ba-lexicalDecision.osexp","C:\Users\ekealey\Desktop","no","mono","no","18","no","white","no","yes","1080","legacy","47","47","C:/Users/ekealey/Desktop/subject-238.csv","xpyriment","Lentiform Loewenfeld","3.3.11","0","z","NA","NA","NA","NA","space","z","911","NA","NA","NA","NA","148224","911","2","legacy","1024","2","48000","-16","AB_m21","238","even","NW_L_COMP","FLIPODY","1814","365628","362040","364122","150200","NA","NA","NA","NA","NA","362540","NA","NA","NA","361540","NA","361510","1973","365828","NA","NA","NA","362581","1814","1961","NA","NA","363492","363518","361510","362540","362561","morph21_Oliver/Morris","32","43980","48","yes","1920","16"
"400","","67.34693877551021","67.34693877551021","911.5102040816327","911.5102040816327","black","no","xpyriment","legacy","legacy","0","202","NA","uniform","NA","NA","NA","1","undefined","1","0","48","48","48","0","48","48","48","NA","0","48","NA","NA","0","48","NA","48","0","48","NA","NA","NA","48","0","0","NA","NA","48","48","48","48","48","49","/","Mon Feb 26 15:40:22 2024","Executes Python code","yes","m21-ba-lexicalDecision.osexp","C:\Users\ekealey\Desktop","no","mono","no","18","no","white","no","yes","1080","legacy","48","48","C:/Users/ekealey/Desktop/subject-238.csv","xpyriment","Lentiform Loewenfeld","3.3.11","0","/","NA","NA","NA","NA","space","/","684","NA","NA","NA","NA","148224","684","2","legacy","1024","2","48000","-16","AB_m21","238","even","CW_L","LOCKER","1814","369259","367403","364122","150200","NA","NA","NA","NA","NA","367904","NA","NA","NA","366903","NA","366875","1973","369659","NA","NA","NA","367945","1814","1961","NA","NA","368629","368654","366875","367904","367924","morph21_Oliver/Morris","33","44664","49","yes","1920","8"
"300","","68","68","911.7","911.7","black","no","xpyriment","legacy","legacy","0","205","NA","uniform","NA","NA","NA","1","undefined","1","0","49","49","49","0","49","49","49","NA","0","49","NA","NA","0","49","NA","49","0","49","NA","NA","NA","49","0","0","NA","NA","49","49","49","49","49","50","z","Mon Feb 26 15:40:22 2024","Executes Python code","yes","m21-ba-lexicalDecision.osexp","C:\Users\ekealey\Desktop","no","mono","no","18","no","white","no","yes","1080","legacy","49","49","C:/Users/ekealey/Desktop/subject-238.csv","xpyriment","Lentiform Loewenfeld","3.3.11","0","z","NA","NA","NA","NA","space","z","921","NA","NA","NA","NA","148224","921","2","legacy","1024","2","48000","-16","AB_m21","238","even","NW_S_SIMP","BOLTOUS","1814","373313","371220","364122","150200","NA","NA","NA","NA","NA","371723","NA","NA","NA","370719","NA","370692","1973","373614","NA","NA","NA","371763","1814","1961","NA","NA","372685","372709","370692","371723","371743","morph21_Oliver/Morris","34","45585","50","yes","1920","13"
"350","","68.62745098039215","68.62745098039215","909.0784313725491","909.0784313725491","black","no","xpyriment","legacy","legacy","0","207","NA","uniform","NA","NA","NA","1","undefined","1","0","50","50","50","0","50","50","50","NA","0","50","NA","NA","0","50","NA","50","0","50","NA","NA","NA","50","0","0","NA","NA","50","50","50","50","50","51","/","Mon Feb 26 15:40:22 2024","Executes Python code","yes","m21-ba-lexicalDecision.osexp","C:\Users\ekealey\Desktop","no","mono","no","18","no","white","no","yes","1080","legacy","50","50","C:/Users/ekealey/Desktop/subject-238.csv","xpyriment","Lentiform Loewenfeld","3.3.11","0","/","NA","NA","NA","NA","space","/","778","NA","NA","NA","NA","148224","778","2","legacy","1024","2","48000","-16","AB_m21","238","even","FILL_W","LEAK","1814","378635","375181","377131","150200","NA","NA","NA","NA","NA","375681","NA","NA","NA","374681","NA","374653","1973","378985","NA","NA","NA","375722","1814","1961","NA","NA","376501","376527","374653","375681","375702","morph21_Oliver/Morris","35","46363","51","yes","1920","9"
"350","","69.23076923076923","69.23076923076923","905.7307692307693","905.7307692307693","black","no","xpyriment","legacy","legacy","0","207","NA","uniform","NA","NA","NA","1","undefined","1","0","51","51","51","0","51","51","51","NA","0","51","NA","NA","0","51","NA","51","0","51","NA","NA","NA","51","0","0","NA","NA","51","51","51","51","51","52","/","Mon Feb 26 15:40:22 2024","Executes Python code","yes","m21-ba-lexicalDecision.osexp","C:\Users\ekealey\Desktop","no","mono","no","18","no","white","no","yes","1080","legacy","51","51","C:/Users/ekealey/Desktop/subject-238.csv","xpyriment","Lentiform Loewenfeld","3.3.11","0","/","NA","NA","NA","NA","space","/","735","NA","NA","NA","NA","148224","735","2","legacy","1024","2","48000","-16","AB_m21","238","even","FILL_W","WEIRD","1814","382465","380559","377131","150200","NA","NA","NA","NA","NA","381061","NA","NA","NA","380057","NA","380027","1973","382815","NA","NA","NA","381101","1814","1961","NA","NA","381837","381862","380027","381061","381081","morph21_Oliver/Morris","36","47098","52","yes","1920","2"
"400","","69.81132075471699","69.81132075471699","904.6792452830189","904.6792452830189","black","no","xpyriment","legacy","legacy","0","202","NA","uniform","NA","NA","NA","1","undefined","1","0","52","52","52","0","52","52","52","NA","0","52","NA","NA","0","52","NA","52","0","52","NA","NA","NA","52","0","0","NA","NA","52","52","52","52","52","53","/","Mon Feb 26 15:40:22 2024","Executes Python code","yes","m21-ba-lexicalDecision.osexp","C:\Users\ekealey\Desktop","no","mono","no","18","no","white","no","yes","1080","legacy","52","52","C:/Users/ekealey/Desktop/subject-238.csv","xpyriment","Lentiform Loewenfeld","3.3.11","0","/","NA","NA","NA","NA","space","/","850","NA","NA","NA","NA","148224","850","2","legacy","1024","2","48000","-16","AB_m21","238","even","CW_L","BLINDNESS","1814","386400","384381","377131","150200","NA","NA","NA","NA","NA","384882","NA","NA","NA","383881","NA","383851","1973","386800","NA","NA","NA","384922","1814","1961","NA","NA","385773","385797","383851","384882","384902","morph21_Oliver/Morris","37","47948","53","yes","1920","40"
"350","","70.37037037037037","70.37037037037037","900.4074074074074","900.4074074074074","black","no","xpyriment","legacy","legacy","0","208","NA","uniform","NA","NA","NA","1","undefined","1","0","53","53","53","0","53","53","53","NA","0","53","NA","NA","0","53","NA","53","0","53","NA","NA","NA","53","0","0","NA","NA","53","53","53","53","53","54","z","Mon Feb 26 15:40:22 2024","Executes Python code","yes","m21-ba-lexicalDecision.osexp","C:\Users\ekealey\Desktop","no","mono","no","18","no","white","no","yes","1080","legacy","53","53","C:/Users/ekealey/Desktop/subject-238.csv","xpyriment","Lentiform Loewenfeld","3.3.11","0","z","NA","NA","NA","NA","space","z","674","NA","NA","NA","NA","148224","674","2","legacy","1024","2","48000","-16","AB_m21","238","even","FILL_NW","JADS","1814","391729","388381","390226","150200","NA","NA","NA","NA","NA","388881","NA","NA","NA","387880","NA","387846","1973","392079","NA","NA","NA","388922","1814","1961","NA","NA","389597","389622","387846","388881","388902","morph21_Oliver/Morris","38","48622","54","yes","1920","31"
"250","","69.0909090909091","69.0909090909091","905.8545454545455","905.8545454545455","black","no","xpyriment","legacy","legacy","0","201","NA","uniform","NA","NA","NA","0","undefined","0","0","54","54","54","0","54","54","54","NA","0","54","NA","NA","0","54","NA","54","0","54","NA","NA","NA","54","0","0","NA","NA","54","54","54","54","54","55","/","Mon Feb 26 15:40:22 2024","Executes Python code","yes","m21-ba-lexicalDecision.osexp","C:\Users\ekealey\Desktop","no","mono","no","18","no","white","no","yes","1080","legacy","54","54","C:/Users/ekealey/Desktop/subject-238.csv","xpyriment","Lentiform Loewenfeld","3.3.11","0","None","NA","NA","NA","NA","space","None","1200","NA","NA","NA","NA","148224","1200","2","legacy","1024","2","48000","-16","AB_m21","238","even","CW_S","MOSSY","1814","396036","393670","390226","150200","NA","NA","NA","NA","NA","394170","NA","NA","NA","393170","NA","393141","1973","396286","NA","NA","NA","394210","1814","1961","NA","NA","395410","395433","393141","394170","394190","morph21_Oliver/Morris","38","49822","55","yes","1920","47"
"200","","69.64285714285714","69.64285714285714","901.3214285714286","901.3214285714286","black","no","xpyriment","legacy","legacy","0","207","NA","uniform","NA","NA","NA","1","undefined","1","0","55","55","55","0","55","55","55","NA","0","55","NA","NA","0","55","NA","55","0","55","NA","NA","NA","55","0","0","NA","NA","55","55","55","55","55","56","/","Mon Feb 26 15:40:22 2024","Executes Python code","yes","m21-ba-lexicalDecision.osexp","C:\Users\ekealey\Desktop","no","mono","no","18","no","white","no","yes","1080","legacy","55","55","C:/Users/ekealey/Desktop/subject-238.csv","xpyriment","Lentiform Loewenfeld","3.3.11","0","/","NA","NA","NA","NA","space","/","652","NA","NA","NA","NA","148224","652","2","legacy","1024","2","48000","-16","AB_m21","238","even","FILL_W","OLD","1814","399672","397852","390226","150200","NA","NA","NA","NA","NA","398352","NA","NA","NA","397352","NA","397323","1973","399872","NA","NA","NA","398392","1814","1961","NA","NA","399044","399069","397322","398352","398372","morph21_Oliver/Morris","39","50474","56","yes","1920","44"
"300","","70.17543859649123","70.17543859649123","901.0175438596491","901.0175438596491","black","no","xpyriment","legacy","legacy","0","208","NA","uniform","NA","NA","NA","1","undefined","1","0","56","56","56","0","56","56","56","NA","0","56","NA","NA","0","56","NA","56","0","56","NA","NA","NA","56","0","0","NA","NA","56","56","56","56","56","57","z","Mon Feb 26 15:40:22 2024","Executes Python code","yes","m21-ba-lexicalDecision.osexp","C:\Users\ekealey\Desktop","no","mono","no","18","no","white","no","yes","1080","legacy","56","56","C:/Users/ekealey/Desktop/subject-238.csv","xpyriment","Lentiform Loewenfeld","3.3.11","0","z","NA","NA","NA","NA","space","z","884","NA","NA","NA","NA","148224","884","2","legacy","1024","2","48000","-16","AB_m21","238","even","FILL_NW","KEMT","1814","405010","401451","403504","150200","NA","NA","NA","NA","NA","401952","NA","NA","NA","400951","NA","400924","1973","405310","NA","NA","NA","401992","1814","1961","NA","NA","402877","402901","400924","401952","401972","morph21_Oliver/Morris","40","51358","57","yes","1920","32"
"200","","68.96551724137932","68.96551724137932","901.3793103448276","901.3793103448276","black","no","xpyriment","legacy","legacy","0","202","NA","uniform","NA","NA","NA","0","undefined","0","0","57","57","57","0","57","57","57","NA","0","57","NA","NA","0","57","NA","57","0","57","NA","NA","NA","57","0","0","NA","NA","57","57","57","57","57","58","/","Mon Feb 26 15:40:22 2024","Executes Python code","yes","m21-ba-lexicalDecision.osexp","C:\Users\ekealey\Desktop","no","mono","no","18","no","white","no","yes","1080","legacy","57","57","C:/Users/ekealey/Desktop/subject-238.csv","xpyriment","Lentiform Loewenfeld","3.3.11","0","z","NA","NA","NA","NA","space","z","922","NA","NA","NA","NA","148224","922","2","legacy","1024","2","48000","-16","AB_m21","238","even","CW_L","BONELESS","1814","409001","406909","403504","150200","NA","NA","NA","NA","NA","407409","NA","NA","NA","406408","NA","406378","1973","409201","NA","NA","NA","407450","1814","1961","NA","NA","408373","408396","406378","407409","407430","morph21_Oliver/Morris","40","52280","58","yes","1920","34"
"300","","67.79661016949153","67.79661016949153","898.1186440677966","898.1186440677966","black","no","xpyriment","legacy","legacy","0","206","NA","uniform","NA","NA","NA","0","undefined","0","0","58","58","58","0","58","58","58","NA","0","58","NA","NA","0","58","NA","58","0","58","NA","NA","NA","58","0","0","NA","NA","58","58","58","58","58","59","z","Mon Feb 26 15:40:22 2024","Executes Python code","yes","m21-ba-lexicalDecision.osexp","C:\Users\ekealey\Desktop","no","mono","no","18","no","white","no","yes","1080","legacy","58","58","C:/Users/ekealey/Desktop/subject-238.csv","xpyriment","Lentiform Loewenfeld","3.3.11","0","/","NA","NA","NA","NA","space","/","709","NA","NA","NA","NA","148224","709","2","legacy","1024","2","48000","-16","AB_m21","238","even","NW_L_SIMP","TAXFUL","1814","412753","410874","403504","150200","NA","NA","NA","NA","NA","411374","NA","NA","NA","410374","NA","410344","1973","413053","NA","NA","NA","411415","1814","1961","NA","NA","412125","412149","410344","411374","411395","morph21_Oliver/Morris","40","52989","59","yes","1920","6"
"400","","68.33333333333333","68.33333333333333","898.5666666666667","898.5666666666667","black","no","xpyriment","legacy","legacy","0","208","NA","uniform","NA","NA","NA","1","undefined","1","0","59","59","59","0","59","59","59","NA","0","59","NA","NA","0","59","NA","59","0","59","NA","NA","NA","59","0","0","NA","NA","59","59","59","59","59","60","z","Mon Feb 26 15:40:22 2024","Executes Python code","yes","m21-ba-lexicalDecision.osexp","C:\Users\ekealey\Desktop","no","mono","no","18","no","white","no","yes","1080","legacy","59","59","C:/Users/ekealey/Desktop/subject-238.csv","xpyriment","Lentiform Loewenfeld","3.3.11","0","z","NA","NA","NA","NA","space","z","925","NA","NA","NA","NA","148224","925","2","legacy","1024","2","48000","-16","AB_m21","238","even","FILL_NW","BUTE","1814","418267","414665","416761","150200","NA","NA","NA","NA","NA","415167","NA","NA","NA","414165","NA","414136","1973","418667","NA","NA","NA","415207","1814","1961","NA","NA","416133","416156","414136","415166","415187","morph21_Oliver/Morris","41","53914","60","yes","1920","5"
"300","","68.85245901639344","68.85245901639344","895.360655737705","895.360655737705","black","no","xpyriment","legacy","legacy","0","207","NA","uniform","NA","NA","NA","1","undefined","1","0","60","60","60","0","60","60","60","NA","0","60","NA","NA","0","60","NA","60","0","60","NA","NA","NA","60","0","0","NA","NA","60","60","60","60","60","61","/","Mon Feb 26 15:40:22 2024","Executes Python code","yes","m21-ba-lexicalDecision.osexp","C:\Users\ekealey\Desktop","no","mono","no","18","no","white","no","yes","1080","legacy","60","60","C:/Users/ekealey/Desktop/subject-238.csv","xpyriment","Lentiform Loewenfeld","3.3.11","0","/","NA","NA","NA","NA","space","/","703","NA","NA","NA","NA","148224","703","2","legacy","1024","2","48000","-16","AB_m21","238","even","FILL_W","IRON","1814","422239","420369","416761","150200","NA","NA","NA","NA","NA","420869","NA","NA","NA","419869","NA","419841","1973","422539","NA","NA","NA","420909","1814","1961","NA","NA","421612","421636","419841","420869","420889","morph21_Oliver/Morris","42","54617","61","yes","1920","33"
"250","","69.35483870967742","69.35483870967742","898.0967741935484","898.0967741935484","black","no","xpyriment","legacy","legacy","0","203","NA","uniform","NA","NA","NA","1","undefined","1","0","61","61","61","0","61","61","61","NA","0","61","NA","NA","0","61","NA","61","0","61","NA","NA","NA","61","0","0","NA","NA","61","61","61","61","61","62","z","Mon Feb 26 15:40:22 2024","Executes Python code","yes","m21-ba-lexicalDecision.osexp","C:\Users\ekealey\Desktop","no","mono","no","18","no","white","no","yes","1080","legacy","61","61","C:/Users/ekealey/Desktop/subject-238.csv","xpyriment","Lentiform Loewenfeld","3.3.11","0","z","NA","NA","NA","NA","space","z","1065","NA","NA","NA","NA","148224","1065","2","legacy","1024","2","48000","-16","AB_m21","238","even","NW_S_COMP","BEEREL","1814","426401","424166","416761","150200","NA","NA","NA","NA","NA","424666","NA","NA","NA","423666","NA","423638","1973","426651","NA","NA","NA","424706","1814","1961","NA","NA","425772","425798","423638","424666","424686","morph21_Oliver/Morris","43","55682","62","yes","1920","5"
"200","","69.84126984126983","69.84126984126983","898.6984126984127","898.6984126984127","black","no","xpyriment","legacy","legacy","0","204","NA","uniform","NA","NA","NA","1","undefined","1","0","62","62","62","0","62","62","62","NA","0","62","NA","NA","0","62","NA","62","0","62","NA","NA","NA","62","0","0","NA","NA","62","62","62","62","62","63","z","Mon Feb 26 15:40:22 2024","Executes Python code","yes","m21-ba-lexicalDecision.osexp","C:\Users\ekealey\Desktop","no","mono","no","18","no","white","no","yes","1080","legacy","62","62","C:/Users/ekealey/Desktop/subject-238.csv","xpyriment","Lentiform Loewenfeld","3.3.11","0","z","NA","NA","NA","NA","space","z","936","NA","NA","NA","NA","148224","936","2","legacy","1024","2","48000","-16","AB_m21","238","even","NW_L_COMP","GASFIL","1814","431890","428279","430385","150200","NA","NA","NA","NA","NA","428779","NA","NA","NA","427778","NA","427748","1973","432091","NA","NA","NA","428819","1814","1961","NA","NA","429756","429780","427748","428779","428799","morph21_Oliver/Morris","44","56618","63","yes","1920","6"
"400","","70.3125","70.3125","892.640625","892.640625","black","no","xpyriment","legacy","legacy","0","202","NA","uniform","NA","NA","NA","1","undefined","1","0","63","63","63","0","63","63","63","NA","0","63","NA","NA","0","63","NA","63","0","63","NA","NA","NA","63","0","0","NA","NA","63","63","63","63","63","64","/","Mon Feb 26 15:40:22 2024","Executes Python code","yes","m21-ba-lexicalDecision.osexp","C:\Users\ekealey\Desktop","no","mono","no","18","no","white","no","yes","1080","legacy","63","63","C:/Users/ekealey/Desktop/subject-238.csv","xpyriment","Lentiform Loewenfeld","3.3.11","0","/","NA","NA","NA","NA","space","/","511","NA","NA","NA","NA","148224","511","2","legacy","1024","2","48000","-16","AB_m21","238","even","CW_L","CONDUCTOR","1814","435481","433797","430385","150200","NA","NA","NA","NA","NA","434299","NA","NA","NA","433295","NA","433263","1973","435881","NA","NA","NA","434340","1814","1961","NA","NA","434852","434877","433263","434299","434320","morph21_Oliver/Morris","45","57129","64","yes","1920","44"
"400","","70.76923076923077","70.76923076923077","891.6615384615385","891.6615384615385","black","no","xpyriment","legacy","legacy","0","204","NA","uniform","NA","NA","NA","1","undefined","1","0","64","64","64","0","64","64","64","NA","0","64","NA","NA","0","64","NA","64","0","64","NA","NA","NA","64","0","0","NA","NA","64","64","64","64","64","65","z","Mon Feb 26 15:40:22 2024","Executes Python code","yes","m21-ba-lexicalDecision.osexp","C:\Users\ekealey\Desktop","no","mono","no","18","no","white","no","yes","1080","legacy","64","64","C:/Users/ekealey/Desktop/subject-238.csv","xpyriment","Lentiform Loewenfeld","3.3.11","0","z","NA","NA","NA","NA","space","z","829","NA","NA","NA","NA","148224","829","2","legacy","1024","2","48000","-16","AB_m21","238","even","NW_L_COMP","RIPENGE","1814","439480","437482","430385","150200","NA","NA","NA","NA","NA","437982","NA","NA","NA","436981","NA","436951","1973","439880","NA","NA","NA","438023","1814","1961","NA","NA","438853","438876","436951","437982","438003","morph21_Oliver/Morris","46","57958","65","yes","1920","4"
"200","","71.21212121212122","71.21212121212122","890.7121212121212","890.7121212121212","black","no","xpyriment","legacy","legacy","0","208","NA","uniform","NA","NA","NA","1","undefined","1","0","65","65","65","0","65","65","65","NA","0","65","NA","NA","0","65","NA","65","0","65","NA","NA","NA","65","0","0","NA","NA","65","65","65","65","65","66","z","Mon Feb 26 15:40:22 2024","Executes Python code","yes","m21-ba-lexicalDecision.osexp","C:\Users\ekealey\Desktop","no","mono","no","18","no","white","no","yes","1080","legacy","65","65","C:/Users/ekealey/Desktop/subject-238.csv","xpyriment","Lentiform Loewenfeld","3.3.11","0","z","NA","NA","NA","NA","space","z","829","NA","NA","NA","NA","148224","829","2","legacy","1024","2","48000","-16","AB_m21","238","even","FILL_NW","HESK","1814","445066","441559","443562","150200","NA","NA","NA","NA","NA","442062","NA","NA","NA","441056","NA","441031","1973","445266","NA","NA","NA","442102","1814","1961","NA","NA","442933","442958","441031","442061","442082","morph21_Oliver/Morris","47","58787","66","yes","1920","29"
"250","","71.64179104477611","71.64179104477611","885.1492537313433","885.1492537313433","black","no","xpyriment","legacy","legacy","0","207","NA","uniform","NA","NA","NA","1","undefined","1","0","66","66","66","0","66","66","66","NA","0","66","NA","NA","0","66","NA","66","0","66","NA","NA","NA","66","0","0","NA","NA","66","66","66","66","66","67","/","Mon Feb 26 15:40:22 2024","Executes Python code","yes","m21-ba-lexicalDecision.osexp","C:\Users\ekealey\Desktop","no","mono","no","18","no","white","no","yes","1080","legacy","66","66","C:/Users/ekealey/Desktop/subject-238.csv","xpyriment","Lentiform Loewenfeld","3.3.11","0","/","NA","NA","NA","NA","space","/","518","NA","NA","NA","NA","148224","518","2","legacy","1024","2","48000","-16","AB_m21","238","even","FILL_W","COOK","1814","448679","446990","443562","150200","NA","NA","NA","NA","NA","447492","NA","NA","NA","446488","NA","446457","1973","448929","NA","NA","NA","447533","1814","1961","NA","NA","448052","448076","446457","447492","447513","morph21_Oliver/Morris","48","59305","67","yes","1920","38"
"350","","72.05882352941177","72.05882352941177","883.6029411764706","883.6029411764706","black","no","xpyriment","legacy","legacy","0","201","NA","uniform","NA","NA","NA","1","undefined","1","0","67","67","67","0","67","67","67","NA","0","67","NA","NA","0","67","NA","67","0","67","NA","NA","NA","67","0","0","NA","NA","67","67","67","67","67","68","/","Mon Feb 26 15:40:22 2024","Executes Python code","yes","m21-ba-lexicalDecision.osexp","C:\Users\ekealey\Desktop","no","mono","no","18","no","white","no","yes","1080","legacy","67","67","C:/Users/ekealey/Desktop/subject-238.csv","xpyriment","Lentiform Loewenfeld","3.3.11","0","/","NA","NA","NA","NA","space","/","780","NA","NA","NA","NA","148224","780","2","legacy","1024","2","48000","-16","AB_m21","238","even","CW_S","BEARDED","1814","452551","450603","443562","150200","NA","NA","NA","NA","NA","451103","NA","NA","NA","450103","NA","450075","1973","452901","NA","NA","NA","451144","1814","1961","NA","NA","451925","451948","450075","451103","451124","morph21_Oliver/Morris","49","60085","68","yes","1920","8"
"400","","72.46376811594203","72.46376811594203","883.0289855072464","883.0289855072464","black","no","xpyriment","legacy","legacy","0","208","NA","uniform","NA","NA","NA","1","undefined","1","0","68","68","68","0","68","68","68","NA","0","68","NA","NA","0","68","NA","68","0","68","NA","NA","NA","68","0","0","NA","NA","68","68","68","68","68","69","z","Mon Feb 26 15:40:22 2024","Executes Python code","yes","m21-ba-lexicalDecision.osexp","C:\Users\ekealey\Desktop","no","mono","no","18","no","white","no","yes","1080","legacy","68","68","C:/Users/ekealey/Desktop/subject-238.csv","xpyriment","Lentiform Loewenfeld","3.3.11","0","z","NA","NA","NA","NA","space","z","844","NA","NA","NA","NA","148224","844","2","legacy","1024","2","48000","-16","AB_m21","238","even","FILL_NW","SOISE","1814","458004","454483","456499","150200","NA","NA","NA","NA","NA","454983","NA","NA","NA","453983","NA","453953","1973","458404","NA","NA","NA","455024","1814","1961","NA","NA","455869","455896","453953","454983","455004","morph21_Oliver/Morris","50","60929","69","yes","1920","43"
"200","","71.42857142857143","71.42857142857143","884.4714285714285","884.4714285714285","black","no","xpyriment","legacy","legacy","0","205","NA","uniform","NA","NA","NA","0","undefined","0","0","69","69","69","0","69","69","69","NA","0","69","NA","NA","0","69","NA","69","0","69","NA","NA","NA","69","0","0","NA","NA","69","69","69","69","69","70","z","Mon Feb 26 15:40:22 2024","Executes Python code","yes","m21-ba-lexicalDecision.osexp","C:\Users\ekealey\Desktop","no","mono","no","18","no","white","no","yes","1080","legacy","69","69","C:/Users/ekealey/Desktop/subject-238.csv","xpyriment","Lentiform Loewenfeld","3.3.11","0","/","NA","NA","NA","NA","space","/","984","NA","NA","NA","NA","148224","984","2","legacy","1024","2","48000","-16","AB_m21","238","even","NW_S_SIMP","NULLISH","1814","462625","460470","456499","150200","NA","NA","NA","NA","NA","460971","NA","NA","NA","459968","NA","459936","1973","462825","NA","NA","NA","461011","1814","1961","NA","NA","461996","462021","459936","460970","460991","morph21_Oliver/Morris","50","61913","70","yes","1920","23"
"400","","70.4225352112676","70.4225352112676","880.3661971830986","880.3661971830986","black","no","xpyriment","legacy","legacy","0","205","NA","uniform","NA","NA","NA","0","undefined","0","0","70","70","70","0","70","70","70","NA","0","70","NA","NA","0","70","NA","70","0","70","NA","NA","NA","70","0","0","NA","NA","70","70","70","70","70","71","z","Mon Feb 26 15:40:22 2024","Executes Python code","yes","m21-ba-lexicalDecision.osexp","C:\Users\ekealey\Desktop","no","mono","no","18","no","white","no","yes","1080","legacy","70","70","C:/Users/ekealey/Desktop/subject-238.csv","xpyriment","Lentiform Loewenfeld","3.3.11","0","/","NA","NA","NA","NA","space","/","593","NA","NA","NA","NA","148224","593","2","legacy","1024","2","48000","-16","AB_m21","238","even","NW_S_SIMP","ADVERTISELY","1814","466271","464510","456499","150200","NA","NA","NA","NA","NA","465011","NA","NA","NA","464010","NA","463979","1973","466671","NA","NA","NA","465051","1814","1961","NA","NA","465644","465668","463979","465011","465031","morph21_Oliver/Morris","50","62506","71","yes","1920","25"
"400","","70.83333333333333","70.83333333333333","877.5833333333334","877.5833333333334","black","no","xpyriment","legacy","legacy","0","201","NA","uniform","NA","NA","NA","1","undefined","1","0","71","71","71","0","71","71","71","NA","0","71","NA","NA","0","71","NA","71","0","71","NA","NA","NA","71","0","0","NA","NA","71","71","71","71","71","72","/","Mon Feb 26 15:40:22 2024","Executes Python code","yes","m21-ba-lexicalDecision.osexp","C:\Users\ekealey\Desktop","no","mono","no","18","no","white","no","yes","1080","legacy","71","71","C:/Users/ekealey/Desktop/subject-238.csv","xpyriment","Lentiform Loewenfeld","3.3.11","0","/","NA","NA","NA","NA","space","/","680","NA","NA","NA","NA","148224","680","2","legacy","1024","2","48000","-16","AB_m21","238","even","CW_S","AVOIDABLE","1814","471656","468303","470151","150200","NA","NA","NA","NA","NA","468803","NA","NA","NA","467803","NA","467773","1973","472056","NA","NA","NA","468844","1814","1961","NA","NA","469525","469548","467773","468803","468824","morph21_Oliver/Morris","51","63186","72","yes","1920","2"
"200","","69.86301369863014","69.86301369863014","882","882","black","no","xpyriment","legacy","legacy","0","203","NA","uniform","NA","NA","NA","0","undefined","0","0","72","72","72","0","72","72","72","NA","0","72","NA","NA","0","72","NA","72","0","72","NA","NA","NA","72","0","0","NA","NA","72","72","72","72","72","73","z","Mon Feb 26 15:40:22 2024","Executes Python code","yes","m21-ba-lexicalDecision.osexp","C:\Users\ekealey\Desktop","no","mono","no","18","no","white","no","yes","1080","legacy","72","72","C:/Users/ekealey/Desktop/subject-238.csv","xpyriment","Lentiform Loewenfeld","3.3.11","0","None","NA","NA","NA","NA","space","None","1200","NA","NA","NA","NA","148224","1200","2","legacy","1024","2","48000","-16","AB_m21","238","even","NW_S_COMP","MELTANGE","1814","476048","473680","470151","150200","NA","NA","NA","NA","NA","474181","NA","NA","NA","473178","NA","473147","1973","476248","NA","NA","NA","474221","1814","1961","NA","NA","475421","475445","473147","474180","474201","morph21_Oliver/Morris","51","64386","73","yes","1920","1"
"250","","70.27027027027027","70.27027027027027","880.4054054054054","880.4054054054054","black","no","xpyriment","legacy","legacy","0","207","NA","uniform","NA","NA","NA","1","undefined","1","0","73","73","73","0","73","73","73","NA","0","73","NA","NA","0","73","NA","73","0","73","NA","NA","NA","73","0","0","NA","NA","73","73","73","73","73","74","/","Mon Feb 26 15:40:22 2024","Executes Python code","yes","m21-ba-lexicalDecision.osexp","C:\Users\ekealey\Desktop","no","mono","no","18","no","white","no","yes","1080","legacy","73","73","C:/Users/ekealey/Desktop/subject-238.csv","xpyriment","Lentiform Loewenfeld","3.3.11","0","/","NA","NA","NA","NA","space","/","764","NA","NA","NA","NA","148224","764","2","legacy","1024","2","48000","-16","AB_m21","238","even","FILL_W","WEAVE","1814","480123","478188","470151","150200","NA","NA","NA","NA","NA","478688","NA","NA","NA","477685","NA","477651","1973","480373","NA","NA","NA","478728","1814","1961","NA","NA","479493","479518","477651","478688","478708","morph21_Oliver/Morris","52","65150","74","yes","1920","12"
"350","","70.66666666666667","70.66666666666667","875.6933333333334","875.6933333333334","black","no","xpyriment","legacy","legacy","0","201","NA","uniform","NA","NA","NA","undefined","undefined","1","0","74","74","74","0","74","74","74","NA","0","74","NA","NA","0","74","NA","74","0","74","NA","NA","NA","74","0","0","NA","NA","74","74","74","74","74","75","/","Mon Feb 26 15:40:22 2024","Executes Python code","yes","m21-ba-lexicalDecision.osexp","C:\Users\ekealey\Desktop","no","mono","no","18","no","white","no","yes","1080","legacy","74","74","C:/Users/ekealey/Desktop/subject-238.csv","xpyriment","Lentiform Loewenfeld","3.3.11","0","space","space","NA","NA","NA","space","/","22143","22143","NA","NA","NA","148224","527","2","legacy","1024","2","48000","-16","AB_m21","238","even","CW_S","NEATLY","1814","485434","482232","483930","150200","485789","NA","NA","NA","NA","482733","NA","NA","NA","481729","NA","481697","1973","507932","NA","NA","NA","482773","1814","1961","NA","NA","483301","483326","481697","482732","482753","morph21_Oliver/Morris","53","65677","75","yes","1920","33"
"300","","71.05263157894737","71.05263157894737","878.9473684210526","878.9473684210526","black","no","xpyriment","legacy","legacy","0","208","NA","uniform","NA","NA","NA","1","undefined","1","0","75","75","75","0","75","75","75","NA","0","75","NA","NA","0","75","NA","75","0","75","NA","NA","NA","75","0","0","NA","NA","75","75","75","75","75","76","z","Mon Feb 26 15:40:22 2024","Executes Python code","yes","m21-ba-lexicalDecision.osexp","C:\Users\ekealey\Desktop","no","mono","no","18","no","white","no","yes","1080","legacy","75","75","C:/Users/ekealey/Desktop/subject-238.csv","xpyriment","Lentiform Loewenfeld","3.3.11","0","z","space","NA","NA","NA","space","z","1123","22143","NA","NA","NA","148224","1123","2","legacy","1024","2","48000","-16","AB_m21","238","even","FILL_NW","DULKS","1814","511826","509531","483930","150200","485789","NA","NA","NA","NA","510031","NA","NA","NA","509029","NA","509000","1973","512126","NA","NA","NA","510072","1814","1961","NA","NA","511196","511222","509000","510031","510052","morph21_Oliver/Morris","54","66800","76","yes","1920","18"
"200","","71.42857142857143","71.42857142857143","875.6623376623377","875.6623376623377","black","no","xpyriment","legacy","legacy","0","208","NA","uniform","NA","NA","NA","1","undefined","1","0","76","76","76","0","76","76","76","NA","0","76","NA","NA","0","76","NA","76","0","76","NA","NA","NA","76","0","0","NA","NA","76","76","76","76","76","77","z","Mon Feb 26 15:40:22 2024","Executes Python code","yes","m21-ba-lexicalDecision.osexp","C:\Users\ekealey\Desktop","no","mono","no","18","no","white","no","yes","1080","legacy","76","76","C:/Users/ekealey/Desktop/subject-238.csv","xpyriment","Lentiform Loewenfeld","3.3.11","0","z","space","NA","NA","NA","space","z","626","22143","NA","NA","NA","148224","626","2","legacy","1024","2","48000","-16","AB_m21","238","even","FILL_NW","PUCTS","1814","515561","513762","483930","150200","485789","NA","NA","NA","NA","514264","NA","NA","NA","513262","NA","513232","1973","515761","NA","NA","NA","514305","1814","1961","NA","NA","514932","514958","513232","514264","514285","morph21_Oliver/Morris","55","67426","77","yes","1920","40"
"300","","71.7948717948718","71.7948717948718","874.7307692307693","874.7307692307693","black","no","xpyriment","legacy","legacy","0","202","NA","uniform","NA","NA","NA","1","undefined","1","0","77","77","77","0","77","77","77","NA","0","77","NA","NA","0","77","NA","77","0","77","NA","NA","NA","77","0","0","NA","NA","77","77","77","77","77","78","/","Mon Feb 26 15:40:22 2024","Executes Python code","yes","m21-ba-lexicalDecision.osexp","C:\Users\ekealey\Desktop","no","mono","no","18","no","white","no","yes","1080","legacy","77","77","C:/Users/ekealey/Desktop/subject-238.csv","xpyriment","Lentiform Loewenfeld","3.3.11","0","/","space","NA","NA","NA","space","/","803","22143","NA","NA","NA","148224","803","2","legacy","1024","2","48000","-16","AB_m21","238","even","CW_L","DOUBTFUL","1814","520880","517404","519376","150200","485789","NA","NA","NA","NA","517904","NA","NA","NA","516903","NA","516872","1973","521180","NA","NA","NA","517945","1814","1961","NA","NA","518749","518773","516872","517904","517925","morph21_Oliver/Morris","56","68229","78","yes","1920","21"
"300","","72.15189873417721","72.15189873417721","870.9367088607595","870.9367088607595","black","no","xpyriment","legacy","legacy","0","201","NA","uniform","NA","NA","NA","1","undefined","1","0","78","78","78","0","78","78","78","NA","0","78","NA","NA","0","78","NA","78","0","78","NA","NA","NA","78","0","0","NA","NA","78","78","78","78","78","79","/","Mon Feb 26 15:40:22 2024","Executes Python code","yes","m21-ba-lexicalDecision.osexp","C:\Users\ekealey\Desktop","no","mono","no","18","no","white","no","yes","1080","legacy","78","78","C:/Users/ekealey/Desktop/subject-238.csv","xpyriment","Lentiform Loewenfeld","3.3.11","0","/","space","NA","NA","NA","space","/","575","22143","NA","NA","NA","148224","575","2","legacy","1024","2","48000","-16","AB_m21","238","even","CW_S","ATTACKER","1814","524585","522840","519376","150200","485789","NA","NA","NA","NA","523340","NA","NA","NA","522338","NA","522307","1973","524885","NA","NA","NA","523381","1814","1961","NA","NA","523957","523981","522307","523340","523361","morph21_Oliver/Morris","57","68804","79","yes","1920","20"
"300","","72.5","72.5","868.05","868.05","black","no","xpyriment","legacy","legacy","0","207","NA","uniform","NA","NA","NA","1","undefined","1","0","79","79","79","0","79","79","79","NA","0","79","NA","NA","0","79","NA","79","0","79","NA","NA","NA","79","0","0","NA","NA","79","79","79","79","79","80","/","Mon Feb 26 15:40:22 2024","Executes Python code","yes","m21-ba-lexicalDecision.osexp","C:\Users\ekealey\Desktop","no","mono","no","18","no","white","no","yes","1080","legacy","79","79","C:/Users/ekealey/Desktop/subject-238.csv","xpyriment","Lentiform Loewenfeld","3.3.11","0","/","space","NA","NA","NA","space","/","640","22143","NA","NA","NA","148224","640","2","legacy","1024","2","48000","-16","AB_m21","238","even","FILL_W","BALD","1814","528376","526565","519376","150200","485789","NA","NA","NA","NA","527067","NA","NA","NA","526064","NA","526034","1973","528676","NA","NA","NA","527107","1814","1961","NA","NA","527748","527773","526034","527067","527087","morph21_Oliver/Morris","58","69444","80","yes","1920","3"
"200","","72.8395061728395","72.8395061728395","867.0864197530864","867.0864197530864","black","no","xpyriment","legacy","legacy","0","207","NA","uniform","NA","NA","NA","1","undefined","1","0","80","80","80","0","80","80","80","NA","0","80","NA","NA","0","80","NA","80","0","80","NA","NA","NA","80","0","0","NA","NA","80","80","80","80","80","81","/","Mon Feb 26 15:40:22 2024","Executes Python code","yes","m21-ba-lexicalDecision.osexp","C:\Users\ekealey\Desktop","no","mono","no","18","no","white","no","yes","1080","legacy","80","80","C:/Users/ekealey/Desktop/subject-238.csv","xpyriment","Lentiform Loewenfeld","3.3.11","0","/","space","NA","NA","NA","space","/","790","22143","NA","NA","NA","148224","790","2","legacy","1024","2","48000","-16","AB_m21","238","even","FILL_W","FLESH","1814","533764","530296","532259","150200","485789","NA","NA","NA","NA","530797","NA","NA","NA","529795","NA","529766","1973","533964","NA","NA","NA","530837","1814","1961","NA","NA","531628","531655","529766","530797","530817","morph21_Oliver/Morris","59","70234","81","yes","1920","32"
"400","","73.17073170731707","73.17073170731707","862.2926829268292","862.2926829268292","black","no","xpyriment","legacy","legacy","0","202","NA","uniform","NA","NA","NA","1","undefined","1","0","81","81","81","0","81","81","81","NA","0","81","NA","NA","0","81","NA","81","0","81","NA","NA","NA","81","0","0","NA","NA","81","81","81","81","81","82","/","Mon Feb 26 15:40:22 2024","Executes Python code","yes","m21-ba-lexicalDecision.osexp","C:\Users\ekealey\Desktop","no","mono","no","18","no","white","no","yes","1080","legacy","81","81","C:/Users/ekealey/Desktop/subject-238.csv","xpyriment","Lentiform Loewenfeld","3.3.11","0","/","space","NA","NA","NA","space","/","474","22143","NA","NA","NA","148224","474","2","legacy","1024","2","48000","-16","AB_m21","238","even","CW_L","CLOUDLESS","1814","537226","535581","532259","150200","485789","NA","NA","NA","NA","536081","NA","NA","NA","535080","NA","535050","1973","537626","NA","NA","NA","536122","1814","1961","NA","NA","536596","536621","535050","536081","536102","morph21_Oliver/Morris","60","70708","82","yes","1920","33"
"250","","73.49397590361446","73.49397590361446","858.1807228915662","858.1807228915662","black","no","xpyriment","legacy","legacy","0","207","NA","uniform","NA","NA","NA","1","undefined","1","0","82","82","82","0","82","82","82","NA","0","82","NA","NA","0","82","NA","82","0","82","NA","NA","NA","82","0","0","NA","NA","82","82","82","82","82","83","/","Mon Feb 26 15:40:22 2024","Executes Python code","yes","m21-ba-lexicalDecision.osexp","C:\Users\ekealey\Desktop","no","mono","no","18","no","white","no","yes","1080","legacy","82","82","C:/Users/ekealey/Desktop/subject-238.csv","xpyriment","Lentiform Loewenfeld","3.3.11","0","/","space","NA","NA","NA","space","/","521","22143","NA","NA","NA","148224","521","2","legacy","1024","2","48000","-16","AB_m21","238","even","FILL_W","PREACH","1814","540968","539279","532259","150200","485789","NA","NA","NA","NA","539779","NA","NA","NA","538777","NA","538746","1973","541218","NA","NA","NA","539819","1814","1961","NA","NA","540340","540365","538746","539779","539799","morph21_Oliver/Morris","61","71229","83","yes","1920","7"
"250","","73.80952380952381","73.80952380952381","859.7738095238095","859.7738095238095","black","no","xpyriment","legacy","legacy","0","203","NA","uniform","NA","NA","NA","1","undefined","1","0","83","83","83","0","83","83","83","NA","0","83","NA","NA","0","83","NA","83","0","83","NA","NA","NA","83","0","0","NA","NA","83","83","83","83","83","84","z","Mon Feb 26 15:40:22 2024","Executes Python code","yes","m21-ba-lexicalDecision.osexp","C:\Users\ekealey\Desktop","no","mono","no","18","no","white","no","yes","1080","legacy","83","83","C:/Users/ekealey/Desktop/subject-238.csv","xpyriment","Lentiform Loewenfeld","3.3.11","0","z","space","NA","NA","NA","space","z","992","22143","NA","NA","NA","148224","992","2","legacy","1024","2","48000","-16","AB_m21","238","even","NW_S_COMP","LIDADY","1814","546512","542846","545007","150200","485789","NA","NA","NA","NA","543346","NA","NA","NA","542345","NA","542315","1973","546762","NA","NA","NA","543387","1814","1961","NA","NA","544380","544403","542315","543346","543367","morph21_Oliver/Morris","62","72221","84","yes","1920","3"
"350","","74.11764705882354","74.11764705882354","855.7411764705882","855.7411764705882","black","no","xpyriment","legacy","legacy","0","207","NA","uniform","NA","NA","NA","1","undefined","1","0","84","84","84","0","84","84","84","NA","0","84","NA","NA","0","84","NA","84","0","84","NA","NA","NA","84","0","0","NA","NA","84","84","84","84","84","85","/","Mon Feb 26 15:40:22 2024","Executes Python code","yes","m21-ba-lexicalDecision.osexp","C:\Users\ekealey\Desktop","no","mono","no","18","no","white","no","yes","1080","legacy","84","84","C:/Users/ekealey/Desktop/subject-238.csv","xpyriment","Lentiform Loewenfeld","3.3.11","0","/","space","NA","NA","NA","space","/","517","22143","NA","NA","NA","148224","517","2","legacy","1024","2","48000","-16","AB_m21","238","even","FILL_W","FAINT","1814","550111","548425","545007","150200","485789","NA","NA","NA","NA","548926","NA","NA","NA","547925","NA","547897","1973","550461","NA","NA","NA","548966","1814","1961","NA","NA","549484","549507","547897","548925","548946","morph21_Oliver/Morris","63","72738","85","yes","1920","31"
"350","","74.4186046511628","74.4186046511628","856.5697674418604","856.5697674418604","black","no","xpyriment","legacy","legacy","0","208","NA","uniform","NA","NA","NA","1","undefined","1","0","85","85","85","0","85","85","85","NA","0","85","NA","NA","0","85","NA","85","0","85","NA","NA","NA","85","0","0","NA","NA","85","85","85","85","85","86","z","Mon Feb 26 15:40:22 2024","Executes Python code","yes","m21-ba-lexicalDecision.osexp","C:\Users\ekealey\Desktop","no","mono","no","18","no","white","no","yes","1080","legacy","85","85","C:/Users/ekealey/Desktop/subject-238.csv","xpyriment","Lentiform Loewenfeld","3.3.11","0","z","space","NA","NA","NA","space","z","927","22143","NA","NA","NA","148224","927","2","legacy","1024","2","48000","-16","AB_m21","238","even","FILL_NW","DOADS","1814","554176","552081","545007","150200","485789","NA","NA","NA","NA","552581","NA","NA","NA","551581","NA","551548","1973","554526","NA","NA","NA","552621","1814","1961","NA","NA","553549","553572","551548","552581","552601","morph21_Oliver/Morris","64","73665","86","yes","1920","15"
"350","","74.71264367816092","74.71264367816092","856.5747126436781","856.5747126436781","black","no","xpyriment","legacy","legacy","0","208","NA","uniform","NA","NA","NA","1","undefined","1","0","86","86","86","0","86","86","86","NA","0","86","NA","NA","0","86","NA","86","0","86","NA","NA","NA","86","0","0","NA","NA","86","86","86","86","86","87","z","Mon Feb 26 15:40:22 2024","Executes Python code","yes","m21-ba-lexicalDecision.osexp","C:\Users\ekealey\Desktop","no","mono","no","18","no","white","no","yes","1080","legacy","86","86","C:/Users/ekealey/Desktop/subject-238.csv","xpyriment","Lentiform Loewenfeld","3.3.11","0","z","space","NA","NA","NA","space","z","857","22143","NA","NA","NA","148224","857","2","legacy","1024","2","48000","-16","AB_m21","238","even","FILL_NW","HEAS","1814","559679","556150","558175","150200","485789","NA","NA","NA","NA","556650","NA","NA","NA","555648","NA","555617","1973","560029","NA","NA","NA","556690","1814","1961","NA","NA","557548","557571","555617","556650","556670","morph21_Oliver/Morris","65","74522","87","yes","1920","26"
"250","","75","75","852.6022727272727","852.6022727272727","black","no","xpyriment","legacy","legacy","0","207","NA","uniform","NA","NA","NA","1","undefined","1","0","87","87","87","0","87","87","87","NA","0","87","NA","NA","0","87","NA","87","0","87","NA","NA","NA","87","0","0","NA","NA","87","87","87","87","87","88","/","Mon Feb 26 15:40:22 2024","Executes Python code","yes","m21-ba-lexicalDecision.osexp","C:\Users\ekealey\Desktop","no","mono","no","18","no","white","no","yes","1080","legacy","87","87","C:/Users/ekealey/Desktop/subject-238.csv","xpyriment","Lentiform Loewenfeld","3.3.11","0","/","space","NA","NA","NA","space","/","507","22143","NA","NA","NA","148224","507","2","legacy","1024","2","48000","-16","AB_m21","238","even","FILL_W","SMOKE","1814","563362","561683","558175","150200","485789","NA","NA","NA","NA","562184","NA","NA","NA","561182","NA","561151","1973","563612","NA","NA","NA","562225","1814","1961","NA","NA","562733","562758","561151","562184","562205","morph21_Oliver/Morris","66","75029","88","yes","1920","50"
"250","","75.28089887640449","75.28089887640449","850.9887640449438","850.9887640449438","black","no","xpyriment","legacy","legacy","0","208","NA","uniform","NA","NA","NA","1","undefined","1","0","88","88","88","0","88","88","88","NA","0","88","NA","NA","0","88","NA","88","0","88","NA","NA","NA","88","0","0","NA","NA","88","88","88","88","88","89","z","Mon Feb 26 15:40:22 2024","Executes Python code","yes","m21-ba-lexicalDecision.osexp","C:\Users\ekealey\Desktop","no","mono","no","18","no","white","no","yes","1080","legacy","88","88","C:/Users/ekealey/Desktop/subject-238.csv","xpyriment","Lentiform Loewenfeld","3.3.11","0","z","space","NA","NA","NA","space","z","709","22143","NA","NA","NA","148224","709","2","legacy","1024","2","48000","-16","AB_m21","238","even","FILL_NW","BUWL","1814","567177","565297","558175","150200","485789","NA","NA","NA","NA","565799","NA","NA","NA","564796","NA","564768","1973","567428","NA","NA","NA","565839","1814","1961","NA","NA","566549","566573","564768","565798","565819","morph21_Oliver/Morris","67","75738","89","yes","1920","9"
"200","","75.55555555555556","75.55555555555556","854.7777777777778","854.7777777777778","black","no","xpyriment","legacy","legacy","0","208","NA","uniform","NA","NA","NA","1","undefined","1","0","89","89","89","0","89","89","89","NA","0","89","NA","NA","0","89","NA","89","0","89","NA","NA","NA","89","0","0","NA","NA","89","89","89","89","89","90","z","Mon Feb 26 15:40:22 2024","Executes Python code","yes","m21-ba-lexicalDecision.osexp","C:\Users\ekealey\Desktop","no","mono","no","18","no","white","no","yes","1080","legacy","89","89","C:/Users/ekealey/Desktop/subject-238.csv","xpyriment","Lentiform Loewenfeld","3.3.11","0","z","space","NA","NA","NA","space","z","1192","22143","NA","NA","NA","148224","1192","2","legacy","1024","2","48000","-16","AB_m21","238","even","FILL_NW","FROT","1814","572939","569070","571434","150200","485789","NA","NA","NA","NA","569570","NA","NA","NA","568570","NA","568539","1973","573139","NA","NA","NA","569611","1814","1961","NA","NA","570804","570830","568539","569570","569591","morph21_Oliver/Morris","68","76930","90","yes","1920","22"
"350","","75.82417582417582","75.82417582417582","852.2417582417582","852.2417582417582","black","no","xpyriment","legacy","legacy","0","202","NA","uniform","NA","NA","NA","1","undefined","1","0","90","90","90","0","90","90","90","NA","0","90","NA","NA","0","90","NA","90","0","90","NA","NA","NA","90","0","0","NA","NA","90","90","90","90","90","91","/","Mon Feb 26 15:40:22 2024","Executes Python code","yes","m21-ba-lexicalDecision.osexp","C:\Users\ekealey\Desktop","no","mono","no","18","no","white","no","yes","1080","legacy","90","90","C:/Users/ekealey/Desktop/subject-238.csv","xpyriment","Lentiform Loewenfeld","3.3.11","0","/","space","NA","NA","NA","space","/","624","22143","NA","NA","NA","148224","624","2","legacy","1024","2","48000","-16","AB_m21","238","even","CW_L","BARKER","1814","576576","574783","571434","150200","485789","NA","NA","NA","NA","575284","NA","NA","NA","574283","NA","574252","1973","576926","NA","NA","NA","575324","1814","1961","NA","NA","575949","575972","574252","575284","575304","morph21_Oliver/Morris","69","77554","91","yes","1920","2"
