"ITI","_prepare","acc","accuracy","average_response_time","avg_rt","background","bidi","canvas_backend","clock_backend","color_backend","compensation","cond_trig","condtrigtime","coordinates","coroutines_cycles","coroutines_duration","coroutines_mean_cycle_duration","correct","correct_instructions_1","correct_new_keyboard_response_1","count_AB_m21","count_ITI","count_blank_screen","count_blink_screen","count_block1","count_break1","count_break2","count_break3_1","count_canvas","count_close_port","count_cond_trigger","count_correct_trigger","count_def_chain","count_end_screen","count_fixation_1","count_getting_started","count_inc_counter","count_instructions_1","count_logger","count_logscript","count_new_inline_script","count_new_inline_script_2","count_new_keyboard_response_1","count_open_port","count_reset_counter_prep","count_reset_counter_run","count_reset_counter_run_1","count_response_trigger_trial","count_responsescreen","count_sequence","count_target_present","count_word_trigger","counter","cresp","datetime","description","disable_garbage_collection","experiment_file","experiment_path","font_bold","font_family","font_italic","font_size","font_underline","foreground","form_clicks","fullscreen","height","keyboard_backend","live_row","live_row_block1","logfile","mouse_backend","opensesame_codename","opensesame_version","repeat_cycle","response","response_break1","response_break2","response_break3_1","response_end_screen","response_instructions_1","response_new_keyboard_response_1","response_time","response_time_break1","response_time_break2","response_time_break3_1","response_time_end_screen","response_time_instructions_1","response_time_new_keyboard_response_1","round_decimals","sampler_backend","sound_buf_size","sound_channels","sound_freq","sound_sample_size","start","subject_nr","subject_parity","targ_type","target","time_AB_m21","time_ITI","time_blank_screen","time_blink_screen","time_block1","time_break1","time_break2","time_break3_1","time_canvas","time_close_port","time_cond_trigger","time_correct_trigger","time_def_chain","time_end_screen","time_fixation_1","time_getting_started","time_inc_counter","time_instructions_1","time_logger","time_logscript","time_new_inline_script","time_new_inline_script_2","time_new_keyboard_response_1","time_open_port","time_reset_counter_prep","time_reset_counter_run","time_reset_counter_run_1","time_response_trigger_trial","time_responsescreen","time_sequence","time_target_present","time_word_trigger","title","total_correct","total_response_time","total_responses","uniform_coordinates","width","word_trig"
"350","","0","0","1200","1200","black","no","xpyriment","legacy","legacy","0","201","NA","uniform","NA","NA","NA","0","undefined","0","0","0","0","0","0","0","0","0","NA","0","0","NA","NA","0","0","NA","0","0","0","NA","NA","NA","0","0","0","NA","NA","0","0","0","0","0","1","/","Wed Sep 27 15:29:26 2023","Executes Python code","yes","m21-ba-lexicalDecision.osexp","C:\Users\ekealey\Desktop","no","mono","no","18","no","white","no","yes","1080","legacy","0","0","C:/Users/ekealey/Desktop/subject-218.csv","xpyriment","Lentiform Loewenfeld","3.3.11","0","None","NA","NA","NA","NA","space","None","1200","NA","NA","NA","NA","23572","1200","2","legacy","1024","2","48000","-16","AB_m21","218","even","CW_S","NEATLY","2171","30174","27803","NA","25901","NA","NA","NA","NA","NA","28305","NA","NA","NA","27301","NA","27270","2327","30524","NA","NA","NA","28345","2171","2315","NA","NA","29545","29569","27269","28304","28325","morph21_Oliver/Morris","0","1200","1","yes","1920","33"
"250","","50","50","975","975","black","no","xpyriment","legacy","legacy","0","204","NA","uniform","NA","NA","NA","1","undefined","1","0","1","1","1","0","1","1","1","NA","0","1","NA","NA","0","1","NA","1","0","1","NA","NA","NA","1","0","0","NA","NA","1","1","1","1","1","2","z","Wed Sep 27 15:29:26 2023","Executes Python code","yes","m21-ba-lexicalDecision.osexp","C:\Users\ekealey\Desktop","no","mono","no","18","no","white","no","yes","1080","legacy","1","1","C:/Users/ekealey/Desktop/subject-218.csv","xpyriment","Lentiform Loewenfeld","3.3.11","0","z","NA","NA","NA","NA","space","z","750","NA","NA","NA","NA","23572","750","2","legacy","1024","2","48000","-16","AB_m21","218","even","NW_L_COMP","BREAKIDY","2171","33992","32072","NA","25901","NA","NA","NA","NA","NA","32574","NA","NA","NA","31571","NA","31540","2327","34242","NA","NA","NA","32614","2171","2315","NA","NA","33364","33389","31540","32573","32594","morph21_Oliver/Morris","1","1950","2","yes","1920","23"
"300","","66.66666666666667","66.66666666666667","904","904","black","no","xpyriment","legacy","legacy","0","205","NA","uniform","NA","NA","NA","1","undefined","1","0","2","2","2","0","2","2","2","NA","0","2","NA","NA","0","2","NA","2","0","2","NA","NA","NA","2","0","0","NA","NA","2","2","2","2","2","3","z","Wed Sep 27 15:29:26 2023","Executes Python code","yes","m21-ba-lexicalDecision.osexp","C:\Users\ekealey\Desktop","no","mono","no","18","no","white","no","yes","1080","legacy","2","2","C:/Users/ekealey/Desktop/subject-218.csv","xpyriment","Lentiform Loewenfeld","3.3.11","0","z","NA","NA","NA","NA","space","z","762","NA","NA","NA","NA","23572","762","2","legacy","1024","2","48000","-16","AB_m21","218","even","NW_S_SIMP","HELMETOUS","2171","39247","35812","37743","25901","NA","NA","NA","NA","NA","36313","NA","NA","NA","35311","NA","35285","2327","39547","NA","NA","NA","36353","2171","2315","NA","NA","37116","37140","35285","36313","36333","morph21_Oliver/Morris","2","2712","3","yes","1920","14"
"200","","50","50","836.25","836.25","black","no","xpyriment","legacy","legacy","0","205","NA","uniform","NA","NA","NA","0","undefined","0","0","3","3","3","0","3","3","3","NA","0","3","NA","NA","0","3","NA","3","0","3","NA","NA","NA","3","0","0","NA","NA","3","3","3","3","3","4","z","Wed Sep 27 15:29:26 2023","Executes Python code","yes","m21-ba-lexicalDecision.osexp","C:\Users\ekealey\Desktop","no","mono","no","18","no","white","no","yes","1080","legacy","3","3","C:/Users/ekealey/Desktop/subject-218.csv","xpyriment","Lentiform Loewenfeld","3.3.11","0","/","NA","NA","NA","NA","space","/","633","NA","NA","NA","NA","23572","633","2","legacy","1024","2","48000","-16","AB_m21","218","even","NW_S_SIMP","OPPOSEMENT","2171","42920","41119","37743","25901","NA","NA","NA","NA","NA","41619","NA","NA","NA","40618","NA","40589","2327","43120","NA","NA","NA","41659","2171","2315","NA","NA","42292","42317","40589","41619","41639","morph21_Oliver/Morris","2","3345","4","yes","1920","8"
"200","","60","60","807.4","807.4","black","no","xpyriment","legacy","legacy","0","205","NA","uniform","NA","NA","NA","1","undefined","1","0","4","4","4","0","4","4","4","NA","0","4","NA","NA","0","4","NA","4","0","4","NA","NA","NA","4","0","0","NA","NA","4","4","4","4","4","5","z","Wed Sep 27 15:29:26 2023","Executes Python code","yes","m21-ba-lexicalDecision.osexp","C:\Users\ekealey\Desktop","no","mono","no","18","no","white","no","yes","1080","legacy","4","4","C:/Users/ekealey/Desktop/subject-218.csv","xpyriment","Lentiform Loewenfeld","3.3.11","0","z","NA","NA","NA","NA","space","z","692","NA","NA","NA","NA","23572","692","2","legacy","1024","2","48000","-16","AB_m21","218","even","NW_S_SIMP","THRILLANCE","2171","46526","44666","37743","25901","NA","NA","NA","NA","NA","45166","NA","NA","NA","44166","NA","44140","2327","46726","NA","NA","NA","45207","2171","2315","NA","NA","45900","45923","44140","45166","45187","morph21_Oliver/Morris","3","4037","5","yes","1920","22"
"350","","66.66666666666667","66.66666666666667","774.8333333333334","774.8333333333334","black","no","xpyriment","legacy","legacy","0","201","NA","uniform","NA","NA","NA","1","undefined","1","0","5","5","5","0","5","5","5","NA","0","5","NA","NA","0","5","NA","5","0","5","NA","NA","NA","5","0","0","NA","NA","5","5","5","5","5","6","/","Wed Sep 27 15:29:26 2023","Executes Python code","yes","m21-ba-lexicalDecision.osexp","C:\Users\ekealey\Desktop","no","mono","no","18","no","white","no","yes","1080","legacy","5","5","C:/Users/ekealey/Desktop/subject-218.csv","xpyriment","Lentiform Loewenfeld","3.3.11","0","/","NA","NA","NA","NA","space","/","612","NA","NA","NA","NA","23572","612","2","legacy","1024","2","48000","-16","AB_m21","218","even","CW_S","SINGER","2171","51559","48274","50056","25901","NA","NA","NA","NA","NA","48775","NA","NA","NA","47773","NA","47743","2327","51909","NA","NA","NA","48815","2171","2315","NA","NA","49427","49452","47743","48774","48795","morph21_Oliver/Morris","4","4649","6","yes","1920","17"
"300","","71.42857142857143","71.42857142857143","762.5714285714286","762.5714285714286","black","no","xpyriment","legacy","legacy","0","207","NA","uniform","NA","NA","NA","1","undefined","1","0","6","6","6","0","6","6","6","NA","0","6","NA","NA","0","6","NA","6","0","6","NA","NA","NA","6","0","0","NA","NA","6","6","6","6","6","7","/","Wed Sep 27 15:29:26 2023","Executes Python code","yes","m21-ba-lexicalDecision.osexp","C:\Users\ekealey\Desktop","no","mono","no","18","no","white","no","yes","1080","legacy","6","6","C:/Users/ekealey/Desktop/subject-218.csv","xpyriment","Lentiform Loewenfeld","3.3.11","0","/","NA","NA","NA","NA","space","/","689","NA","NA","NA","NA","23572","689","2","legacy","1024","2","48000","-16","AB_m21","218","even","FILL_W","BAKE","2171","55304","53445","50056","25901","NA","NA","NA","NA","NA","53945","NA","NA","NA","52944","NA","52911","2327","55604","NA","NA","NA","53986","2171","2315","NA","NA","54676","54700","52911","53945","53966","morph21_Oliver/Morris","5","5338","7","yes","1920","29"
"300","","75","75","734.125","734.125","black","no","xpyriment","legacy","legacy","0","202","NA","uniform","NA","NA","NA","1","undefined","1","0","7","7","7","0","7","7","7","NA","0","7","NA","NA","0","7","NA","7","0","7","NA","NA","NA","7","0","0","NA","NA","7","7","7","7","7","8","/","Wed Sep 27 15:29:26 2023","Executes Python code","yes","m21-ba-lexicalDecision.osexp","C:\Users\ekealey\Desktop","no","mono","no","18","no","white","no","yes","1080","legacy","7","7","C:/Users/ekealey/Desktop/subject-218.csv","xpyriment","Lentiform Loewenfeld","3.3.11","0","/","NA","NA","NA","NA","space","/","535","NA","NA","NA","NA","23572","535","2","legacy","1024","2","48000","-16","AB_m21","218","even","CW_L","DOUBTFUL","2171","58841","57136","50056","25901","NA","NA","NA","NA","NA","57636","NA","NA","NA","56636","NA","56612","2327","59141","NA","NA","NA","57677","2171","2315","NA","NA","58212","58236","56612","57636","57657","morph21_Oliver/Morris","6","5873","8","yes","1920","21"
"350","","77.77777777777777","77.77777777777777","711.6666666666666","711.6666666666666","black","no","xpyriment","legacy","legacy","0","206","NA","uniform","NA","NA","NA","1","undefined","1","0","8","8","8","0","8","8","8","NA","0","8","NA","NA","0","8","NA","8","0","8","NA","NA","NA","8","0","0","NA","NA","8","8","8","8","8","9","z","Wed Sep 27 15:29:26 2023","Executes Python code","yes","m21-ba-lexicalDecision.osexp","C:\Users\ekealey\Desktop","no","mono","no","18","no","white","no","yes","1080","legacy","8","8","C:/Users/ekealey/Desktop/subject-218.csv","xpyriment","Lentiform Loewenfeld","3.3.11","0","z","NA","NA","NA","NA","space","z","532","NA","NA","NA","NA","23572","532","2","legacy","1024","2","48000","-16","AB_m21","218","even","NW_L_SIMP","HABITIC","2171","63912","60705","62409","25901","NA","NA","NA","NA","NA","61207","NA","NA","NA","60204","NA","60179","2327","64262","NA","NA","NA","61248","2171","2315","NA","NA","61780","61804","60179","61207","61228","morph21_Oliver/Morris","7","6405","9","yes","1920","7"
"400","","70","70","760.5","760.5","black","no","xpyriment","legacy","legacy","0","208","NA","uniform","NA","NA","NA","0","undefined","0","0","9","9","9","0","9","9","9","NA","0","9","NA","NA","0","9","NA","9","0","9","NA","NA","NA","9","0","0","NA","NA","9","9","9","9","9","10","z","Wed Sep 27 15:29:26 2023","Executes Python code","yes","m21-ba-lexicalDecision.osexp","C:\Users\ekealey\Desktop","no","mono","no","18","no","white","no","yes","1080","legacy","9","9","C:/Users/ekealey/Desktop/subject-218.csv","xpyriment","Lentiform Loewenfeld","3.3.11","0","None","NA","NA","NA","NA","space","None","1200","NA","NA","NA","NA","23572","1200","2","legacy","1024","2","48000","-16","AB_m21","218","even","FILL_NW","BUTE","2171","68194","65827","62409","25901","NA","NA","NA","NA","NA","66327","NA","NA","NA","65327","NA","65295","2327","68594","NA","NA","NA","66367","2171","2315","NA","NA","67567","67590","65295","66327","66347","morph21_Oliver/Morris","7","7605","10","yes","1920","5"
"250","","72.72727272727273","72.72727272727273","745.6363636363636","745.6363636363636","black","no","xpyriment","legacy","legacy","0","208","NA","uniform","NA","NA","NA","1","undefined","1","0","10","10","10","0","10","10","10","NA","0","10","NA","NA","0","10","NA","10","0","10","NA","NA","NA","10","0","0","NA","NA","10","10","10","10","10","11","z","Wed Sep 27 15:29:26 2023","Executes Python code","yes","m21-ba-lexicalDecision.osexp","C:\Users\ekealey\Desktop","no","mono","no","18","no","white","no","yes","1080","legacy","10","10","C:/Users/ekealey/Desktop/subject-218.csv","xpyriment","Lentiform Loewenfeld","3.3.11","0","z","NA","NA","NA","NA","space","z","597","NA","NA","NA","NA","23572","597","2","legacy","1024","2","48000","-16","AB_m21","218","even","FILL_NW","PIFTH","2171","71919","70154","62409","25901","NA","NA","NA","NA","NA","70654","NA","NA","NA","69652","NA","69622","2327","72169","NA","NA","NA","70694","2171","2315","NA","NA","71292","71315","69622","70654","70674","morph21_Oliver/Morris","8","8202","11","yes","1920","36"
"350","","75","75","733.9166666666666","733.9166666666666","black","no","xpyriment","legacy","legacy","0","204","NA","uniform","NA","NA","NA","1","undefined","1","0","11","11","11","0","11","11","11","NA","0","11","NA","NA","0","11","NA","11","0","11","NA","NA","NA","11","0","0","NA","NA","11","11","11","11","11","12","z","Wed Sep 27 15:29:26 2023","Executes Python code","yes","m21-ba-lexicalDecision.osexp","C:\Users\ekealey\Desktop","no","mono","no","18","no","white","no","yes","1080","legacy","11","11","C:/Users/ekealey/Desktop/subject-218.csv","xpyriment","Lentiform Loewenfeld","3.3.11","0","z","NA","NA","NA","NA","space","z","605","NA","NA","NA","NA","23572","605","2","legacy","1024","2","48000","-16","AB_m21","218","even","NW_L_COMP","INKILM","2171","77030","73752","75527","25901","NA","NA","NA","NA","NA","74252","NA","NA","NA","73252","NA","73220","2327","77380","NA","NA","NA","74294","2171","2315","NA","NA","74900","74923","73219","74252","74273","morph21_Oliver/Morris","9","8807","12","yes","1920","8"
"250","","76.92307692307692","76.92307692307692","721.6153846153846","721.6153846153846","black","no","xpyriment","legacy","legacy","0","201","NA","uniform","NA","NA","NA","1","undefined","1","0","12","12","12","0","12","12","12","NA","0","12","NA","NA","0","12","NA","12","0","12","NA","NA","NA","12","0","0","NA","NA","12","12","12","12","12","13","/","Wed Sep 27 15:29:26 2023","Executes Python code","yes","m21-ba-lexicalDecision.osexp","C:\Users\ekealey\Desktop","no","mono","no","18","no","white","no","yes","1080","legacy","12","12","C:/Users/ekealey/Desktop/subject-218.csv","xpyriment","Lentiform Loewenfeld","3.3.11","0","/","NA","NA","NA","NA","space","/","574","NA","NA","NA","NA","23572","574","2","legacy","1024","2","48000","-16","AB_m21","218","even","CW_S","HARMLESS","2171","80674","78928","75527","25901","NA","NA","NA","NA","NA","79428","NA","NA","NA","78427","NA","78395","2327","80924","NA","NA","NA","79469","2171","2315","NA","NA","80043","80069","78395","79428","79449","morph21_Oliver/Morris","10","9381","13","yes","1920","29"
"400","","71.42857142857143","71.42857142857143","710.5714285714286","710.5714285714286","black","no","xpyriment","legacy","legacy","0","208","NA","uniform","NA","NA","NA","0","undefined","0","0","13","13","13","0","13","13","13","NA","0","13","NA","NA","0","13","NA","13","0","13","NA","NA","NA","13","0","0","NA","NA","13","13","13","13","13","14","z","Wed Sep 27 15:29:26 2023","Executes Python code","yes","m21-ba-lexicalDecision.osexp","C:\Users\ekealey\Desktop","no","mono","no","18","no","white","no","yes","1080","legacy","13","13","C:/Users/ekealey/Desktop/subject-218.csv","xpyriment","Lentiform Loewenfeld","3.3.11","0","/","NA","NA","NA","NA","space","/","567","NA","NA","NA","NA","23572","567","2","legacy","1024","2","48000","-16","AB_m21","218","even","FILL_NW","BORMS","2171","84190","82456","75527","25901","NA","NA","NA","NA","NA","82956","NA","NA","NA","81956","NA","81923","2327","84590","NA","NA","NA","82997","2171","2315","NA","NA","83564","83587","81923","82956","82977","morph21_Oliver/Morris","10","9948","14","yes","1920","50"
"200","","73.33333333333333","73.33333333333333","716.5333333333333","716.5333333333333","black","no","xpyriment","legacy","legacy","0","201","NA","uniform","NA","NA","NA","1","undefined","1","0","14","14","14","0","14","14","14","NA","0","14","NA","NA","0","14","NA","14","0","14","NA","NA","NA","14","0","0","NA","NA","14","14","14","14","14","15","/","Wed Sep 27 15:29:26 2023","Executes Python code","yes","m21-ba-lexicalDecision.osexp","C:\Users\ekealey\Desktop","no","mono","no","18","no","white","no","yes","1080","legacy","14","14","C:/Users/ekealey/Desktop/subject-218.csv","xpyriment","Lentiform Loewenfeld","3.3.11","0","/","NA","NA","NA","NA","space","/","800","NA","NA","NA","NA","23572","800","2","legacy","1024","2","48000","-16","AB_m21","218","even","CW_S","ANGELIC","2171","89614","86140","88111","25901","NA","NA","NA","NA","NA","86642","NA","NA","NA","85639","NA","85612","2327","89814","NA","NA","NA","86683","2171","2315","NA","NA","87483","87508","85612","86642","86663","morph21_Oliver/Morris","11","10748","15","yes","1920","25"
"300","","75","75","717.9375","717.9375","black","no","xpyriment","legacy","legacy","0","202","NA","uniform","NA","NA","NA","1","undefined","1","0","15","15","15","0","15","15","15","NA","0","15","NA","NA","0","15","NA","15","0","15","NA","NA","NA","15","0","0","NA","NA","15","15","15","15","15","16","/","Wed Sep 27 15:29:26 2023","Executes Python code","yes","m21-ba-lexicalDecision.osexp","C:\Users\ekealey\Desktop","no","mono","no","18","no","white","no","yes","1080","legacy","15","15","C:/Users/ekealey/Desktop/subject-218.csv","xpyriment","Lentiform Loewenfeld","3.3.11","0","/","NA","NA","NA","NA","space","/","739","NA","NA","NA","NA","23572","739","2","legacy","1024","2","48000","-16","AB_m21","218","even","CW_L","COMPOSER","2171","93286","91378","88111","25901","NA","NA","NA","NA","NA","91880","NA","NA","NA","90876","NA","90841","2327","93587","NA","NA","NA","91920","2171","2315","NA","NA","92659","92683","90841","91880","91900","morph21_Oliver/Morris","12","11487","16","yes","1920","6"
"200","","70.58823529411765","70.58823529411765","718.4117647058823","718.4117647058823","black","no","xpyriment","legacy","legacy","0","208","NA","uniform","NA","NA","NA","0","undefined","0","0","16","16","16","0","16","16","16","NA","0","16","NA","NA","0","16","NA","16","0","16","NA","NA","NA","16","0","0","NA","NA","16","16","16","16","16","17","z","Wed Sep 27 15:29:26 2023","Executes Python code","yes","m21-ba-lexicalDecision.osexp","C:\Users\ekealey\Desktop","no","mono","no","18","no","white","no","yes","1080","legacy","16","16","C:/Users/ekealey/Desktop/subject-218.csv","xpyriment","Lentiform Loewenfeld","3.3.11","0","/","NA","NA","NA","NA","space","/","726","NA","NA","NA","NA","23572","726","2","legacy","1024","2","48000","-16","AB_m21","218","even","FILL_NW","TUEER","2171","97009","95112","88111","25901","NA","NA","NA","NA","NA","95613","NA","NA","NA","94611","NA","94584","2327","97210","NA","NA","NA","95654","2171","2315","NA","NA","96380","96405","94584","95613","95634","morph21_Oliver/Morris","12","12213","17","yes","1920","44"
"200","","72.22222222222223","72.22222222222223","723.9444444444445","723.9444444444445","black","no","xpyriment","legacy","legacy","0","208","NA","uniform","NA","NA","NA","1","undefined","1","0","17","17","17","0","17","17","17","NA","0","17","NA","NA","0","17","NA","17","0","17","NA","NA","NA","17","0","0","NA","NA","17","17","17","17","17","18","z","Wed Sep 27 15:29:26 2023","Executes Python code","yes","m21-ba-lexicalDecision.osexp","C:\Users\ekealey\Desktop","no","mono","no","18","no","white","no","yes","1080","legacy","17","17","C:/Users/ekealey/Desktop/subject-218.csv","xpyriment","Lentiform Loewenfeld","3.3.11","0","z","NA","NA","NA","NA","space","z","818","NA","NA","NA","NA","23572","818","2","legacy","1024","2","48000","-16","AB_m21","218","even","FILL_NW","GAIRS","2171","102250","98756","100745","25901","NA","NA","NA","NA","NA","99257","NA","NA","NA","98254","NA","98221","2327","102450","NA","NA","NA","99297","2171","2315","NA","NA","100115","100142","98221","99257","99277","morph21_Oliver/Morris","13","13031","18","yes","1920","23"
"200","","73.6842105263158","73.6842105263158","730.6842105263158","730.6842105263158","black","no","xpyriment","legacy","legacy","0","202","NA","uniform","NA","NA","NA","1","undefined","1","0","18","18","18","0","18","18","18","NA","0","18","NA","NA","0","18","NA","18","0","18","NA","NA","NA","18","0","0","NA","NA","18","18","18","18","18","19","/","Wed Sep 27 15:29:26 2023","Executes Python code","yes","m21-ba-lexicalDecision.osexp","C:\Users\ekealey\Desktop","no","mono","no","18","no","white","no","yes","1080","legacy","18","18","C:/Users/ekealey/Desktop/subject-218.csv","xpyriment","Lentiform Loewenfeld","3.3.11","0","/","NA","NA","NA","NA","space","/","852","NA","NA","NA","NA","23572","852","2","legacy","1024","2","48000","-16","AB_m21","218","even","CW_L","BOOTLESS","2171","106014","103994","100745","25901","NA","NA","NA","NA","NA","104495","NA","NA","NA","103494","NA","103460","2327","106214","NA","NA","NA","104535","2171","2315","NA","NA","105387","105411","103460","104495","104515","morph21_Oliver/Morris","14","13883","19","yes","1920","32"
"350","","70","70","727.65","727.65","black","no","xpyriment","legacy","legacy","0","201","NA","uniform","NA","NA","NA","0","undefined","0","0","19","19","19","0","19","19","19","NA","0","19","NA","NA","0","19","NA","19","0","19","NA","NA","NA","19","0","0","NA","NA","19","19","19","19","19","20","/","Wed Sep 27 15:29:26 2023","Executes Python code","yes","m21-ba-lexicalDecision.osexp","C:\Users\ekealey\Desktop","no","mono","no","18","no","white","no","yes","1080","legacy","19","19","C:/Users/ekealey/Desktop/subject-218.csv","xpyriment","Lentiform Loewenfeld","3.3.11","0","z","NA","NA","NA","NA","space","z","670","NA","NA","NA","NA","23572","670","2","legacy","1024","2","48000","-16","AB_m21","218","even","CW_S","AMAZEMENT","2171","109680","107838","100745","25901","NA","NA","NA","NA","NA","108341","NA","NA","NA","107338","NA","107313","2327","110030","NA","NA","NA","108381","2171","2315","NA","NA","109051","109076","107313","108341","108361","morph21_Oliver/Morris","14","14553","20","yes","1920","39"
"400","","71.42857142857143","71.42857142857143","735.6190476190476","735.6190476190476","black","no","xpyriment","legacy","legacy","0","206","NA","uniform","NA","NA","NA","1","undefined","1","0","20","20","20","0","20","20","20","NA","0","20","NA","NA","0","20","NA","20","0","20","NA","NA","NA","20","0","0","NA","NA","20","20","20","20","20","21","z","Wed Sep 27 15:29:26 2023","Executes Python code","yes","m21-ba-lexicalDecision.osexp","C:\Users\ekealey\Desktop","no","mono","no","18","no","white","no","yes","1080","legacy","20","20","C:/Users/ekealey/Desktop/subject-218.csv","xpyriment","Lentiform Loewenfeld","3.3.11","0","z","NA","NA","NA","NA","space","z","895","NA","NA","NA","NA","23572","895","2","legacy","1024","2","48000","-16","AB_m21","218","even","NW_L_SIMP","BOGARY","2171","115153","111582","113648","25901","NA","NA","NA","NA","NA","112083","NA","NA","NA","111081","NA","111053","2327","115554","NA","NA","NA","112124","2171","2315","NA","NA","113020","113044","111053","112083","112104","morph21_Oliver/Morris","15","15448","21","yes","1920","2"
"300","","72.72727272727273","72.72727272727273","726.7272727272727","726.7272727272727","black","no","xpyriment","legacy","legacy","0","207","NA","uniform","NA","NA","NA","1","undefined","1","0","21","21","21","0","21","21","21","NA","0","21","NA","NA","0","21","NA","21","0","21","NA","NA","NA","21","0","0","NA","NA","21","21","21","21","21","22","/","Wed Sep 27 15:29:26 2023","Executes Python code","yes","m21-ba-lexicalDecision.osexp","C:\Users\ekealey\Desktop","no","mono","no","18","no","white","no","yes","1080","legacy","21","21","C:/Users/ekealey/Desktop/subject-218.csv","xpyriment","Lentiform Loewenfeld","3.3.11","0","/","NA","NA","NA","NA","space","/","540","NA","NA","NA","NA","23572","540","2","legacy","1024","2","48000","-16","AB_m21","218","even","FILL_W","SICK","2171","118846","117136","113648","25901","NA","NA","NA","NA","NA","117639","NA","NA","NA","116635","NA","116611","2327","119146","NA","NA","NA","117679","2171","2315","NA","NA","118220","118243","116611","117639","117659","morph21_Oliver/Morris","16","15988","22","yes","1920","36"
"300","","73.91304347826087","73.91304347826087","723.4347826086956","723.4347826086956","black","no","xpyriment","legacy","legacy","0","202","NA","uniform","NA","NA","NA","1","undefined","1","0","22","22","22","0","22","22","22","NA","0","22","NA","NA","0","22","NA","22","0","22","NA","NA","NA","22","0","0","NA","NA","22","22","22","22","22","23","/","Wed Sep 27 15:29:26 2023","Executes Python code","yes","m21-ba-lexicalDecision.osexp","C:\Users\ekealey\Desktop","no","mono","no","18","no","white","no","yes","1080","legacy","22","22","C:/Users/ekealey/Desktop/subject-218.csv","xpyriment","Lentiform Loewenfeld","3.3.11","0","/","NA","NA","NA","NA","space","/","651","NA","NA","NA","NA","23572","651","2","legacy","1024","2","48000","-16","AB_m21","218","even","CW_L","WEEDY","2171","122527","120706","113648","25901","NA","NA","NA","NA","NA","121207","NA","NA","NA","120204","NA","120179","2327","122827","NA","NA","NA","121248","2171","2315","NA","NA","121900","121924","120179","121207","121228","morph21_Oliver/Morris","17","16639","23","yes","1920","48"
"400","","75","75","722.0416666666666","722.0416666666666","black","no","xpyriment","legacy","legacy","0","203","NA","uniform","NA","NA","NA","1","undefined","1","0","23","23","23","0","23","23","23","NA","0","23","NA","NA","0","23","NA","23","0","23","NA","NA","NA","23","0","0","NA","NA","23","23","23","23","23","24","z","Wed Sep 27 15:29:26 2023","Executes Python code","yes","m21-ba-lexicalDecision.osexp","C:\Users\ekealey\Desktop","no","mono","no","18","no","white","no","yes","1080","legacy","23","23","C:/Users/ekealey/Desktop/subject-218.csv","xpyriment","Lentiform Loewenfeld","3.3.11","0","z","NA","NA","NA","NA","space","z","690","NA","NA","NA","NA","23572","690","2","legacy","1024","2","48000","-16","AB_m21","218","even","NW_S_COMP","TRUENELS","2171","127732","124371","126230","25901","NA","NA","NA","NA","NA","124872","NA","NA","NA","123870","NA","123844","2327","128132","NA","NA","NA","124913","2171","2315","NA","NA","125604","125627","123844","124872","124893","morph21_Oliver/Morris","18","17329","24","yes","1920","15"
"250","","76","76","734","734","black","no","xpyriment","legacy","legacy","0","205","NA","uniform","NA","NA","NA","1","undefined","1","0","24","24","24","0","24","24","24","NA","0","24","NA","NA","0","24","NA","24","0","24","NA","NA","NA","24","0","0","NA","NA","24","24","24","24","24","25","z","Wed Sep 27 15:29:26 2023","Executes Python code","yes","m21-ba-lexicalDecision.osexp","C:\Users\ekealey\Desktop","no","mono","no","18","no","white","no","yes","1080","legacy","24","24","C:/Users/ekealey/Desktop/subject-218.csv","xpyriment","Lentiform Loewenfeld","3.3.11","0","z","NA","NA","NA","NA","space","z","1021","NA","NA","NA","NA","23572","1021","2","legacy","1024","2","48000","-16","AB_m21","218","even","NW_S_SIMP","ZOOMFUL","2171","131903","129713","126230","25901","NA","NA","NA","NA","NA","130214","NA","NA","NA","129212","NA","129180","2327","132153","NA","NA","NA","130254","2171","2315","NA","NA","131275","131299","129180","130214","130234","morph21_Oliver/Morris","19","18350","25","yes","1920","19"
"350","","73.07692307692308","73.07692307692308","741.4615384615385","741.4615384615385","black","no","xpyriment","legacy","legacy","0","202","NA","uniform","NA","NA","NA","0","undefined","0","0","25","25","25","0","25","25","25","NA","0","25","NA","NA","0","25","NA","25","0","25","NA","NA","NA","25","0","0","NA","NA","25","25","25","25","25","26","/","Wed Sep 27 15:29:26 2023","Executes Python code","yes","m21-ba-lexicalDecision.osexp","C:\Users\ekealey\Desktop","no","mono","no","18","no","white","no","yes","1080","legacy","25","25","C:/Users/ekealey/Desktop/subject-218.csv","xpyriment","Lentiform Loewenfeld","3.3.11","0","z","NA","NA","NA","NA","space","z","928","NA","NA","NA","NA","23572","928","2","legacy","1024","2","48000","-16","AB_m21","218","even","CW_L","GUILELESS","2171","135782","133686","126230","25901","NA","NA","NA","NA","NA","134186","NA","NA","NA","133185","NA","133156","2327","136132","NA","NA","NA","134227","2171","2315","NA","NA","135156","135179","133156","134186","134207","morph21_Oliver/Morris","19","19278","26","yes","1920","31"
"300","","74.07407407407408","74.07407407407408","743.6666666666666","743.6666666666666","black","no","xpyriment","legacy","legacy","0","208","NA","uniform","NA","NA","NA","1","undefined","1","0","26","26","26","0","26","26","26","NA","0","26","NA","NA","0","26","NA","26","0","26","NA","NA","NA","26","0","0","NA","NA","26","26","26","26","26","27","z","Wed Sep 27 15:29:26 2023","Executes Python code","yes","m21-ba-lexicalDecision.osexp","C:\Users\ekealey\Desktop","no","mono","no","18","no","white","no","yes","1080","legacy","26","26","C:/Users/ekealey/Desktop/subject-218.csv","xpyriment","Lentiform Loewenfeld","3.3.11","0","z","NA","NA","NA","NA","space","z","801","NA","NA","NA","NA","23572","801","2","legacy","1024","2","48000","-16","AB_m21","218","even","FILL_NW","DULKS","2171","141147","137668","139641","25901","NA","NA","NA","NA","NA","138169","NA","NA","NA","137167","NA","137138","2327","141447","NA","NA","NA","138210","2171","2315","NA","NA","139011","139037","137138","138169","138190","morph21_Oliver/Morris","20","20079","27","yes","1920","18"
"350","","75","75","749","749","black","no","xpyriment","legacy","legacy","0","201","NA","uniform","NA","NA","NA","1","undefined","1","0","27","27","27","0","27","27","27","NA","0","27","NA","NA","0","27","NA","27","0","27","NA","NA","NA","27","0","0","NA","NA","27","27","27","27","27","28","/","Wed Sep 27 15:29:26 2023","Executes Python code","yes","m21-ba-lexicalDecision.osexp","C:\Users\ekealey\Desktop","no","mono","no","18","no","white","no","yes","1080","legacy","27","27","C:/Users/ekealey/Desktop/subject-218.csv","xpyriment","Lentiform Loewenfeld","3.3.11","0","/","NA","NA","NA","NA","space","/","893","NA","NA","NA","NA","23572","893","2","legacy","1024","2","48000","-16","AB_m21","218","even","CW_S","DENSELY","2171","145071","143007","139641","25901","NA","NA","NA","NA","NA","143510","NA","NA","NA","142506","NA","142472","2327","145421","NA","NA","NA","143550","2171","2315","NA","NA","144443","144467","142472","143510","143530","morph21_Oliver/Morris","21","20972","28","yes","1920","32"
"300","","75.86206896551724","75.86206896551724","746.0689655172414","746.0689655172414","black","no","xpyriment","legacy","legacy","0","207","NA","uniform","NA","NA","NA","1","undefined","1","0","28","28","28","0","28","28","28","NA","0","28","NA","NA","0","28","NA","28","0","28","NA","NA","NA","28","0","0","NA","NA","28","28","28","28","28","29","/","Wed Sep 27 15:29:26 2023","Executes Python code","yes","m21-ba-lexicalDecision.osexp","C:\Users\ekealey\Desktop","no","mono","no","18","no","white","no","yes","1080","legacy","28","28","C:/Users/ekealey/Desktop/subject-218.csv","xpyriment","Lentiform Loewenfeld","3.3.11","0","/","NA","NA","NA","NA","space","/","664","NA","NA","NA","NA","23572","664","2","legacy","1024","2","48000","-16","AB_m21","218","even","FILL_W","MOURN","2171","148808","146973","139641","25901","NA","NA","NA","NA","NA","147475","NA","NA","NA","146472","NA","146447","2327","149109","NA","NA","NA","147515","2171","2315","NA","NA","148179","148204","146447","147475","147495","morph21_Oliver/Morris","22","21636","29","yes","1920","26"
"200","","76.66666666666667","76.66666666666667","746.3","746.3","black","no","xpyriment","legacy","legacy","0","208","NA","uniform","NA","NA","NA","1","undefined","1","0","29","29","29","0","29","29","29","NA","0","29","NA","NA","0","29","NA","29","0","29","NA","NA","NA","29","0","0","NA","NA","29","29","29","29","29","30","z","Wed Sep 27 15:29:26 2023","Executes Python code","yes","m21-ba-lexicalDecision.osexp","C:\Users\ekealey\Desktop","no","mono","no","18","no","white","no","yes","1080","legacy","29","29","C:/Users/ekealey/Desktop/subject-218.csv","xpyriment","Lentiform Loewenfeld","3.3.11","0","z","NA","NA","NA","NA","space","z","753","NA","NA","NA","NA","23572","753","2","legacy","1024","2","48000","-16","AB_m21","218","even","FILL_NW","FROT","2171","154085","150661","152582","25901","NA","NA","NA","NA","NA","151162","NA","NA","NA","150161","NA","150129","2327","154285","NA","NA","NA","151202","2171","2315","NA","NA","151955","151979","150129","151162","151182","morph21_Oliver/Morris","23","22389","30","yes","1920","22"
"350","","77.41935483870968","77.41935483870968","751.6774193548387","751.6774193548387","black","no","xpyriment","legacy","legacy","0","203","NA","uniform","NA","NA","NA","1","undefined","1","0","30","30","30","0","30","30","30","NA","0","30","NA","NA","0","30","NA","30","0","30","NA","NA","NA","30","0","0","NA","NA","30","30","30","30","30","31","z","Wed Sep 27 15:29:26 2023","Executes Python code","yes","m21-ba-lexicalDecision.osexp","C:\Users\ekealey\Desktop","no","mono","no","18","no","white","no","yes","1080","legacy","30","30","C:/Users/ekealey/Desktop/subject-218.csv","xpyriment","Lentiform Loewenfeld","3.3.11","0","z","NA","NA","NA","NA","space","z","913","NA","NA","NA","NA","23572","913","2","legacy","1024","2","48000","-16","AB_m21","218","even","NW_S_COMP","EJECTENGE","2171","157926","155845","152582","25901","NA","NA","NA","NA","NA","156346","NA","NA","NA","155343","NA","155311","2327","158276","NA","NA","NA","156386","2171","2315","NA","NA","157300","157323","155311","156346","156366","morph21_Oliver/Morris","24","23302","31","yes","1920","20"
"300","","78.125","78.125","750.4375","750.4375","black","no","xpyriment","legacy","legacy","0","207","NA","uniform","NA","NA","NA","1","undefined","1","0","31","31","31","0","31","31","31","NA","0","31","NA","NA","0","31","NA","31","0","31","NA","NA","NA","31","0","0","NA","NA","31","31","31","31","31","32","/","Wed Sep 27 15:29:26 2023","Executes Python code","yes","m21-ba-lexicalDecision.osexp","C:\Users\ekealey\Desktop","no","mono","no","18","no","white","no","yes","1080","legacy","31","31","C:/Users/ekealey/Desktop/subject-218.csv","xpyriment","Lentiform Loewenfeld","3.3.11","0","/","NA","NA","NA","NA","space","/","712","NA","NA","NA","NA","23572","712","2","legacy","1024","2","48000","-16","AB_m21","218","even","FILL_W","BALD","2171","161702","159823","152582","25901","NA","NA","NA","NA","NA","160323","NA","NA","NA","159323","NA","159294","2327","162002","NA","NA","NA","160363","2171","2315","NA","NA","161075","161099","159294","160323","160343","morph21_Oliver/Morris","25","24014","32","yes","1920","3"
"200","","78.78787878787878","78.78787878787878","747.4242424242424","747.4242424242424","black","no","xpyriment","legacy","legacy","0","207","NA","uniform","NA","NA","NA","1","undefined","1","0","32","32","32","0","32","32","32","NA","0","32","NA","NA","0","32","NA","32","0","32","NA","NA","NA","32","0","0","NA","NA","32","32","32","32","32","33","/","Wed Sep 27 15:29:26 2023","Executes Python code","yes","m21-ba-lexicalDecision.osexp","C:\Users\ekealey\Desktop","no","mono","no","18","no","white","no","yes","1080","legacy","32","32","C:/Users/ekealey/Desktop/subject-218.csv","xpyriment","Lentiform Loewenfeld","3.3.11","0","/","NA","NA","NA","NA","space","/","651","NA","NA","NA","NA","23572","651","2","legacy","1024","2","48000","-16","AB_m21","218","even","FILL_W","BRASS","2171","166895","163569","165391","25901","NA","NA","NA","NA","NA","164071","NA","NA","NA","163068","NA","163039","2327","167095","NA","NA","NA","164112","2171","2315","NA","NA","164763","164787","163039","164071","164092","morph21_Oliver/Morris","26","24665","33","yes","1920","10"
"350","","79.41176470588235","79.41176470588235","745.4705882352941","745.4705882352941","black","no","xpyriment","legacy","legacy","0","206","NA","uniform","NA","NA","NA","1","undefined","1","0","33","33","33","0","33","33","33","NA","0","33","NA","NA","0","33","NA","33","0","33","NA","NA","NA","33","0","0","NA","NA","33","33","33","33","33","34","z","Wed Sep 27 15:29:26 2023","Executes Python code","yes","m21-ba-lexicalDecision.osexp","C:\Users\ekealey\Desktop","no","mono","no","18","no","white","no","yes","1080","legacy","33","33","C:/Users/ekealey/Desktop/subject-218.csv","xpyriment","Lentiform Loewenfeld","3.3.11","0","z","NA","NA","NA","NA","space","z","681","NA","NA","NA","NA","23572","681","2","legacy","1024","2","48000","-16","AB_m21","218","even","NW_L_SIMP","NUTLY","2171","170495","168644","165391","25901","NA","NA","NA","NA","NA","169146","NA","NA","NA","168143","NA","168114","2327","170845","NA","NA","NA","169186","2171","2315","NA","NA","169868","169892","168113","169146","169166","morph21_Oliver/Morris","27","25346","34","yes","1920","14"
"400","","80","80","744.8285714285714","744.8285714285714","black","no","xpyriment","legacy","legacy","0","207","NA","uniform","NA","NA","NA","1","undefined","1","0","34","34","34","0","34","34","34","NA","0","34","NA","NA","0","34","NA","34","0","34","NA","NA","NA","34","0","0","NA","NA","34","34","34","34","34","35","/","Wed Sep 27 15:29:26 2023","Executes Python code","yes","m21-ba-lexicalDecision.osexp","C:\Users\ekealey\Desktop","no","mono","no","18","no","white","no","yes","1080","legacy","34","34","C:/Users/ekealey/Desktop/subject-218.csv","xpyriment","Lentiform Loewenfeld","3.3.11","0","/","NA","NA","NA","NA","space","/","723","NA","NA","NA","NA","23572","723","2","legacy","1024","2","48000","-16","AB_m21","218","even","FILL_W","CHIP","2171","174272","172379","165391","25901","NA","NA","NA","NA","NA","172880","NA","NA","NA","171878","NA","171846","2327","174672","NA","NA","NA","172920","2171","2315","NA","NA","173643","173668","171846","172880","172900","morph21_Oliver/Morris","28","26069","35","yes","1920","11"
"200","","80.55555555555556","80.55555555555556","746.3888888888889","746.3888888888889","black","no","xpyriment","legacy","legacy","0","208","NA","uniform","NA","NA","NA","1","undefined","1","0","35","35","35","0","35","35","35","NA","0","35","NA","NA","0","35","NA","35","0","35","NA","NA","NA","35","0","0","NA","NA","35","35","35","35","35","36","z","Wed Sep 27 15:29:26 2023","Executes Python code","yes","m21-ba-lexicalDecision.osexp","C:\Users\ekealey\Desktop","no","mono","no","18","no","white","no","yes","1080","legacy","35","35","C:/Users/ekealey/Desktop/subject-218.csv","xpyriment","Lentiform Loewenfeld","3.3.11","0","z","NA","NA","NA","NA","space","z","801","NA","NA","NA","NA","23572","801","2","legacy","1024","2","48000","-16","AB_m21","218","even","FILL_NW","FALONS","2171","179680","176203","178175","25901","NA","NA","NA","NA","NA","176706","NA","NA","NA","175702","NA","175674","2327","179880","NA","NA","NA","176746","2171","2315","NA","NA","177548","177572","175674","176706","176726","morph21_Oliver/Morris","29","26870","36","yes","1920","19"
"350","","81.08108108108108","81.08108108108108","744.8648648648649","744.8648648648649","black","no","xpyriment","legacy","legacy","0","207","NA","uniform","NA","NA","NA","1","undefined","1","0","36","36","36","0","36","36","36","NA","0","36","NA","NA","0","36","NA","36","0","36","NA","NA","NA","36","0","0","NA","NA","36","36","36","36","36","37","/","Wed Sep 27 15:29:26 2023","Executes Python code","yes","m21-ba-lexicalDecision.osexp","C:\Users\ekealey\Desktop","no","mono","no","18","no","white","no","yes","1080","legacy","36","36","C:/Users/ekealey/Desktop/subject-218.csv","xpyriment","Lentiform Loewenfeld","3.3.11","0","/","NA","NA","NA","NA","space","/","690","NA","NA","NA","NA","23572","690","2","legacy","1024","2","48000","-16","AB_m21","218","even","FILL_W","FOLLOW","2171","183304","181443","178175","25901","NA","NA","NA","NA","NA","181945","NA","NA","NA","180941","NA","180916","2327","183654","NA","NA","NA","181985","2171","2315","NA","NA","182676","182699","180916","181944","181965","morph21_Oliver/Morris","30","27560","37","yes","1920","17"
"200","","81.57894736842105","81.57894736842105","743.6842105263158","743.6842105263158","black","no","xpyriment","legacy","legacy","0","205","NA","uniform","NA","NA","NA","1","undefined","1","0","37","37","37","0","37","37","37","NA","0","37","NA","NA","0","37","NA","37","0","37","NA","NA","NA","37","0","0","NA","NA","37","37","37","37","37","38","z","Wed Sep 27 15:29:26 2023","Executes Python code","yes","m21-ba-lexicalDecision.osexp","C:\Users\ekealey\Desktop","no","mono","no","18","no","white","no","yes","1080","legacy","37","37","C:/Users/ekealey/Desktop/subject-218.csv","xpyriment","Lentiform Loewenfeld","3.3.11","0","z","NA","NA","NA","NA","space","z","700","NA","NA","NA","NA","23572","700","2","legacy","1024","2","48000","-16","AB_m21","218","even","NW_S_SIMP","GUMFUL","2171","187073","185202","178175","25901","NA","NA","NA","NA","NA","185703","NA","NA","NA","184702","NA","184677","2327","187273","NA","NA","NA","185743","2171","2315","NA","NA","186444","186467","184677","185703","185723","morph21_Oliver/Morris","31","28260","38","yes","1920","2"
"300","","82.05128205128206","82.05128205128206","746.7692307692307","746.7692307692307","black","no","xpyriment","legacy","legacy","0","201","NA","uniform","NA","NA","NA","1","undefined","1","0","38","38","38","0","38","38","38","NA","0","38","NA","NA","0","38","NA","38","0","38","NA","NA","NA","38","0","0","NA","NA","38","38","38","38","38","39","/","Wed Sep 27 15:29:26 2023","Executes Python code","yes","m21-ba-lexicalDecision.osexp","C:\Users\ekealey\Desktop","no","mono","no","18","no","white","no","yes","1080","legacy","38","38","C:/Users/ekealey/Desktop/subject-218.csv","xpyriment","Lentiform Loewenfeld","3.3.11","0","/","NA","NA","NA","NA","space","/","864","NA","NA","NA","NA","23572","864","2","legacy","1024","2","48000","-16","AB_m21","218","even","CW_S","DETECTABLE","2171","192345","188805","190840","25901","NA","NA","NA","NA","NA","189306","NA","NA","NA","188303","NA","188276","2327","192645","NA","NA","NA","189347","2171","2315","NA","NA","190211","190236","188276","189306","189327","morph21_Oliver/Morris","32","29124","39","yes","1920","1"
"250","","82.5","82.5","745.55","745.55","black","no","xpyriment","legacy","legacy","0","207","NA","uniform","NA","NA","NA","1","undefined","1","0","39","39","39","0","39","39","39","NA","0","39","NA","NA","0","39","NA","39","0","39","NA","NA","NA","39","0","0","NA","NA","39","39","39","39","39","40","/","Wed Sep 27 15:29:26 2023","Executes Python code","yes","m21-ba-lexicalDecision.osexp","C:\Users\ekealey\Desktop","no","mono","no","18","no","white","no","yes","1080","legacy","39","39","C:/Users/ekealey/Desktop/subject-218.csv","xpyriment","Lentiform Loewenfeld","3.3.11","0","/","NA","NA","NA","NA","space","/","698","NA","NA","NA","NA","23572","698","2","legacy","1024","2","48000","-16","AB_m21","218","even","FILL_W","COOK","2171","196080","194211","190840","25901","NA","NA","NA","NA","NA","194712","NA","NA","NA","193710","NA","193683","2327","196330","NA","NA","NA","194752","2171","2315","NA","NA","195451","195475","193683","194712","194732","morph21_Oliver/Morris","33","29822","40","yes","1920","38"
"200","","82.92682926829268","82.92682926829268","747.0243902439024","747.0243902439024","black","no","xpyriment","legacy","legacy","0","208","NA","uniform","NA","NA","NA","1","undefined","1","0","40","40","40","0","40","40","40","NA","0","40","NA","NA","0","40","NA","40","0","40","NA","NA","NA","40","0","0","NA","NA","40","40","40","40","40","41","z","Wed Sep 27 15:29:26 2023","Executes Python code","yes","m21-ba-lexicalDecision.osexp","C:\Users\ekealey\Desktop","no","mono","no","18","no","white","no","yes","1080","legacy","40","40","C:/Users/ekealey/Desktop/subject-218.csv","xpyriment","Lentiform Loewenfeld","3.3.11","0","z","NA","NA","NA","NA","space","z","806","NA","NA","NA","NA","23572","806","2","legacy","1024","2","48000","-16","AB_m21","218","even","FILL_NW","SMADE","2171","199854","197879","190840","25901","NA","NA","NA","NA","NA","198381","NA","NA","NA","197377","NA","197351","2327","200054","NA","NA","NA","198421","2171","2315","NA","NA","199228","199251","197351","198381","198401","morph21_Oliver/Morris","34","30628","41","yes","1920","42"
"400","","83.33333333333333","83.33333333333333","748","748","black","no","xpyriment","legacy","legacy","0","207","NA","uniform","NA","NA","NA","1","undefined","1","0","41","41","41","0","41","41","41","NA","0","41","NA","NA","0","41","NA","41","0","41","NA","NA","NA","41","0","0","NA","NA","41","41","41","41","41","42","/","Wed Sep 27 15:29:26 2023","Executes Python code","yes","m21-ba-lexicalDecision.osexp","C:\Users\ekealey\Desktop","no","mono","no","18","no","white","no","yes","1080","legacy","41","41","C:/Users/ekealey/Desktop/subject-218.csv","xpyriment","Lentiform Loewenfeld","3.3.11","0","/","NA","NA","NA","NA","space","/","788","NA","NA","NA","NA","23572","788","2","legacy","1024","2","48000","-16","AB_m21","218","even","FILL_W","CRUNCH","2171","205093","201634","203590","25901","NA","NA","NA","NA","NA","202135","NA","NA","NA","201133","NA","201107","2327","205493","NA","NA","NA","202175","2171","2315","NA","NA","202964","202987","201107","202134","202155","morph21_Oliver/Morris","35","31416","42","yes","1920","20"
"300","","83.72093023255815","83.72093023255815","749.7674418604652","749.7674418604652","black","no","xpyriment","legacy","legacy","0","206","NA","uniform","NA","NA","NA","1","undefined","1","0","42","42","42","0","42","42","42","NA","0","42","NA","NA","0","42","NA","42","0","42","NA","NA","NA","42","0","0","NA","NA","42","42","42","42","42","43","z","Wed Sep 27 15:29:26 2023","Executes Python code","yes","m21-ba-lexicalDecision.osexp","C:\Users\ekealey\Desktop","no","mono","no","18","no","white","no","yes","1080","legacy","42","42","C:/Users/ekealey/Desktop/subject-218.csv","xpyriment","Lentiform Loewenfeld","3.3.11","0","z","NA","NA","NA","NA","space","z","824","NA","NA","NA","NA","23572","824","2","legacy","1024","2","48000","-16","AB_m21","218","even","NW_L_SIMP","BEANISH","2171","209031","207036","203590","25901","NA","NA","NA","NA","NA","207538","NA","NA","NA","206534","NA","206503","2327","209331","NA","NA","NA","207579","2171","2315","NA","NA","208403","208427","206503","207538","207559","morph21_Oliver/Morris","36","32240","43","yes","1920","8"
"200","","84.0909090909091","84.0909090909091","752.5681818181819","752.5681818181819","black","no","xpyriment","legacy","legacy","0","203","NA","uniform","NA","NA","NA","1","undefined","1","0","43","43","43","0","43","43","43","NA","0","43","NA","NA","0","43","NA","43","0","43","NA","NA","NA","43","0","0","NA","NA","43","43","43","43","43","44","z","Wed Sep 27 15:29:26 2023","Executes Python code","yes","m21-ba-lexicalDecision.osexp","C:\Users\ekealey\Desktop","no","mono","no","18","no","white","no","yes","1080","legacy","43","43","C:/Users/ekealey/Desktop/subject-218.csv","xpyriment","Lentiform Loewenfeld","3.3.11","0","z","NA","NA","NA","NA","space","z","873","NA","NA","NA","NA","23572","873","2","legacy","1024","2","48000","-16","AB_m21","218","even","NW_S_COMP","ANTILM","2171","212927","210884","203590","25901","NA","NA","NA","NA","NA","211385","NA","NA","NA","210383","NA","210356","2327","213127","NA","NA","NA","211426","2171","2315","NA","NA","212300","212324","210356","211385","211406","morph21_Oliver/Morris","37","33113","44","yes","1920","8"
"350","","84.44444444444444","84.44444444444444","756.5777777777778","756.5777777777778","black","no","xpyriment","legacy","legacy","0","204","NA","uniform","NA","NA","NA","1","undefined","1","0","44","44","44","0","44","44","44","NA","0","44","NA","NA","0","44","NA","44","0","44","NA","NA","NA","44","0","0","NA","NA","44","44","44","44","44","45","z","Wed Sep 27 15:29:26 2023","Executes Python code","yes","m21-ba-lexicalDecision.osexp","C:\Users\ekealey\Desktop","no","mono","no","18","no","white","no","yes","1080","legacy","44","44","C:/Users/ekealey/Desktop/subject-218.csv","xpyriment","Lentiform Loewenfeld","3.3.11","0","z","NA","NA","NA","NA","space","z","933","NA","NA","NA","NA","23572","933","2","legacy","1024","2","48000","-16","AB_m21","218","even","NW_L_COMP","MOUTHIME","2171","218329","214721","216823","25901","NA","NA","NA","NA","NA","215222","NA","NA","NA","214221","NA","214193","2327","218679","NA","NA","NA","215262","2171","2315","NA","NA","216195","216219","214193","215222","215242","morph21_Oliver/Morris","38","34046","45","yes","1920","11"
"300","","84.78260869565217","84.78260869565217","755.3260869565217","755.3260869565217","black","no","xpyriment","legacy","legacy","0","202","NA","uniform","NA","NA","NA","1","undefined","1","0","45","45","45","0","45","45","45","NA","0","45","NA","NA","0","45","NA","45","0","45","NA","NA","NA","45","0","0","NA","NA","45","45","45","45","45","46","/","Wed Sep 27 15:29:26 2023","Executes Python code","yes","m21-ba-lexicalDecision.osexp","C:\Users\ekealey\Desktop","no","mono","no","18","no","white","no","yes","1080","legacy","45","45","C:/Users/ekealey/Desktop/subject-218.csv","xpyriment","Lentiform Loewenfeld","3.3.11","0","/","NA","NA","NA","NA","space","/","699","NA","NA","NA","NA","23572","699","2","legacy","1024","2","48000","-16","AB_m21","218","even","CW_L","HEATER","2171","222118","220250","216823","25901","NA","NA","NA","NA","NA","220750","NA","NA","NA","219749","NA","219719","2327","222418","NA","NA","NA","220791","2171","2315","NA","NA","221491","221515","219718","220750","220771","morph21_Oliver/Morris","39","34745","46","yes","1920","16"
"300","","85.1063829787234","85.1063829787234","762.063829787234","762.063829787234","black","no","xpyriment","legacy","legacy","0","203","NA","uniform","NA","NA","NA","1","undefined","1","0","46","46","46","0","46","46","46","NA","0","46","NA","NA","0","46","NA","46","0","46","NA","NA","NA","46","0","0","NA","NA","46","46","46","46","46","47","z","Wed Sep 27 15:29:26 2023","Executes Python code","yes","m21-ba-lexicalDecision.osexp","C:\Users\ekealey\Desktop","no","mono","no","18","no","white","no","yes","1080","legacy","46","46","C:/Users/ekealey/Desktop/subject-218.csv","xpyriment","Lentiform Loewenfeld","3.3.11","0","z","NA","NA","NA","NA","space","z","1072","NA","NA","NA","NA","23572","1072","2","legacy","1024","2","48000","-16","AB_m21","218","even","NW_S_COMP","FIGEL","2171","226215","223974","216823","25901","NA","NA","NA","NA","NA","224475","NA","NA","NA","223473","NA","223447","2327","226515","NA","NA","NA","224515","2171","2315","NA","NA","225587","225612","223447","224475","224495","morph21_Oliver/Morris","40","35817","47","yes","1920","4"
"250","","85.41666666666667","85.41666666666667","757.875","757.875","black","no","xpyriment","legacy","legacy","0","207","NA","uniform","NA","NA","NA","1","undefined","1","0","47","47","47","0","47","47","47","NA","0","47","NA","NA","0","47","NA","47","0","47","NA","NA","NA","47","0","0","NA","NA","47","47","47","47","47","48","/","Wed Sep 27 15:29:26 2023","Executes Python code","yes","m21-ba-lexicalDecision.osexp","C:\Users\ekealey\Desktop","no","mono","no","18","no","white","no","yes","1080","legacy","47","47","C:/Users/ekealey/Desktop/subject-218.csv","xpyriment","Lentiform Loewenfeld","3.3.11","0","/","NA","NA","NA","NA","space","/","561","NA","NA","NA","NA","23572","561","2","legacy","1024","2","48000","-16","AB_m21","218","even","FILL_W","PACK","2171","231279","228045","229776","25901","NA","NA","NA","NA","NA","228545","NA","NA","NA","227545","NA","227514","2327","231529","NA","NA","NA","228586","2171","2315","NA","NA","229147","229173","227514","228545","228566","morph21_Oliver/Morris","41","36378","48","yes","1920","41"
"400","","85.71428571428571","85.71428571428571","755.1224489795918","755.1224489795918","black","no","xpyriment","legacy","legacy","0","202","NA","uniform","NA","NA","NA","1","undefined","1","0","48","48","48","0","48","48","48","NA","0","48","NA","NA","0","48","NA","48","0","48","NA","NA","NA","48","0","0","NA","NA","48","48","48","48","48","49","/","Wed Sep 27 15:29:26 2023","Executes Python code","yes","m21-ba-lexicalDecision.osexp","C:\Users\ekealey\Desktop","no","mono","no","18","no","white","no","yes","1080","legacy","48","48","C:/Users/ekealey/Desktop/subject-218.csv","xpyriment","Lentiform Loewenfeld","3.3.11","0","/","NA","NA","NA","NA","space","/","623","NA","NA","NA","NA","23572","623","2","legacy","1024","2","48000","-16","AB_m21","218","even","CW_L","LOCKER","2171","234854","233063","229776","25901","NA","NA","NA","NA","NA","233563","NA","NA","NA","232562","NA","232533","2327","235254","NA","NA","NA","233604","2171","2315","NA","NA","234227","234251","232533","233563","233584","morph21_Oliver/Morris","42","37001","49","yes","1920","8"
"400","","86","86","759.08","759.08","black","no","xpyriment","legacy","legacy","0","205","NA","uniform","NA","NA","NA","1","undefined","1","0","49","49","49","0","49","49","49","NA","0","49","NA","NA","0","49","NA","49","0","49","NA","NA","NA","49","0","0","NA","NA","49","49","49","49","49","50","z","Wed Sep 27 15:29:26 2023","Executes Python code","yes","m21-ba-lexicalDecision.osexp","C:\Users\ekealey\Desktop","no","mono","no","18","no","white","no","yes","1080","legacy","49","49","C:/Users/ekealey/Desktop/subject-218.csv","xpyriment","Lentiform Loewenfeld","3.3.11","0","z","NA","NA","NA","NA","space","z","953","NA","NA","NA","NA","23572","953","2","legacy","1024","2","48000","-16","AB_m21","218","even","NW_S_SIMP","ADVERTISELY","2171","238918","236796","229776","25901","NA","NA","NA","NA","NA","237296","NA","NA","NA","236295","NA","236265","2327","239318","NA","NA","NA","237337","2171","2315","NA","NA","238291","238315","236265","237296","237317","morph21_Oliver/Morris","43","37954","50","yes","1920","25"
"300","","86.27450980392157","86.27450980392157","755.0392156862745","755.0392156862745","black","no","xpyriment","legacy","legacy","0","201","NA","uniform","NA","NA","NA","1","undefined","1","0","50","50","50","0","50","50","50","NA","0","50","NA","NA","0","50","NA","50","0","50","NA","NA","NA","50","0","0","NA","NA","50","50","50","50","50","51","/","Wed Sep 27 15:29:26 2023","Executes Python code","yes","m21-ba-lexicalDecision.osexp","C:\Users\ekealey\Desktop","no","mono","no","18","no","white","no","yes","1080","legacy","50","50","C:/Users/ekealey/Desktop/subject-218.csv","xpyriment","Lentiform Loewenfeld","3.3.11","0","/","NA","NA","NA","NA","space","/","553","NA","NA","NA","NA","23572","553","2","legacy","1024","2","48000","-16","AB_m21","218","even","CW_S","ATTACKER","2171","244103","240877","242598","25901","NA","NA","NA","NA","NA","241378","NA","NA","NA","240376","NA","240349","2327","244403","NA","NA","NA","241418","2171","2315","NA","NA","241972","241995","240349","241377","241398","morph21_Oliver/Morris","44","38507","51","yes","1920","20"
"250","","86.53846153846153","86.53846153846153","755","755","black","no","xpyriment","legacy","legacy","0","206","NA","uniform","NA","NA","NA","1","undefined","1","0","51","51","51","0","51","51","51","NA","0","51","NA","NA","0","51","NA","51","0","51","NA","NA","NA","51","0","0","NA","NA","51","51","51","51","51","52","z","Wed Sep 27 15:29:26 2023","Executes Python code","yes","m21-ba-lexicalDecision.osexp","C:\Users\ekealey\Desktop","no","mono","no","18","no","white","no","yes","1080","legacy","51","51","C:/Users/ekealey/Desktop/subject-218.csv","xpyriment","Lentiform Loewenfeld","3.3.11","0","z","NA","NA","NA","NA","space","z","753","NA","NA","NA","NA","23572","753","2","legacy","1024","2","48000","-16","AB_m21","218","even","NW_L_SIMP","BEARIST","2171","247861","245939","242598","25901","NA","NA","NA","NA","NA","246440","NA","NA","NA","245437","NA","245408","2327","248112","NA","NA","NA","246481","2171","2315","NA","NA","247235","247258","245408","246440","246461","morph21_Oliver/Morris","45","39260","52","yes","1920","25"
"200","","86.79245283018868","86.79245283018868","752.7358490566038","752.7358490566038","black","no","xpyriment","legacy","legacy","0","207","NA","uniform","NA","NA","NA","1","undefined","1","0","52","52","52","0","52","52","52","NA","0","52","NA","NA","0","52","NA","52","0","52","NA","NA","NA","52","0","0","NA","NA","52","52","52","52","52","53","/","Wed Sep 27 15:29:26 2023","Executes Python code","yes","m21-ba-lexicalDecision.osexp","C:\Users\ekealey\Desktop","no","mono","no","18","no","white","no","yes","1080","legacy","52","52","C:/Users/ekealey/Desktop/subject-218.csv","xpyriment","Lentiform Loewenfeld","3.3.11","0","/","NA","NA","NA","NA","space","/","635","NA","NA","NA","NA","23572","635","2","legacy","1024","2","48000","-16","AB_m21","218","even","FILL_W","BLEAK","2171","251455","249650","242598","25901","NA","NA","NA","NA","NA","250151","NA","NA","NA","249149","NA","249119","2327","251655","NA","NA","NA","250191","2171","2315","NA","NA","250827","250851","249119","250151","250171","morph21_Oliver/Morris","46","39895","53","yes","1920","5"
"250","","87.03703703703704","87.03703703703704","750.574074074074","750.574074074074","black","no","xpyriment","legacy","legacy","0","201","NA","uniform","NA","NA","NA","1","undefined","1","0","53","53","53","0","53","53","53","NA","0","53","NA","NA","0","53","NA","53","0","53","NA","NA","NA","53","0","0","NA","NA","53","53","53","53","53","54","/","Wed Sep 27 15:29:26 2023","Executes Python code","yes","m21-ba-lexicalDecision.osexp","C:\Users\ekealey\Desktop","no","mono","no","18","no","white","no","yes","1080","legacy","53","53","C:/Users/ekealey/Desktop/subject-218.csv","xpyriment","Lentiform Loewenfeld","3.3.11","0","/","NA","NA","NA","NA","space","/","636","NA","NA","NA","NA","23572","636","2","legacy","1024","2","48000","-16","AB_m21","218","even","CW_S","COSTLY","2171","256551","253241","255048","25901","NA","NA","NA","NA","NA","253743","NA","NA","NA","252739","NA","252715","2327","256801","NA","NA","NA","253783","2171","2315","NA","NA","254420","254445","252715","253743","253763","morph21_Oliver/Morris","47","40531","54","yes","1920","36"
"200","","87.27272727272727","87.27272727272727","750.2181818181818","750.2181818181818","black","no","xpyriment","legacy","legacy","0","201","NA","uniform","NA","NA","NA","1","undefined","1","0","54","54","54","0","54","54","54","NA","0","54","NA","NA","0","54","NA","54","0","54","NA","NA","NA","54","0","0","NA","NA","54","54","54","54","54","55","/","Wed Sep 27 15:29:26 2023","Executes Python code","yes","m21-ba-lexicalDecision.osexp","C:\Users\ekealey\Desktop","no","mono","no","18","no","white","no","yes","1080","legacy","54","54","C:/Users/ekealey/Desktop/subject-218.csv","xpyriment","Lentiform Loewenfeld","3.3.11","0","/","NA","NA","NA","NA","space","/","731","NA","NA","NA","NA","23572","731","2","legacy","1024","2","48000","-16","AB_m21","218","even","CW_S","LOCALLY","2171","260279","258379","255048","25901","NA","NA","NA","NA","NA","258880","NA","NA","NA","257875","NA","257849","2327","260479","NA","NA","NA","258920","2171","2315","NA","NA","259651","259676","257849","258880","258900","morph21_Oliver/Morris","48","41262","55","yes","1920","37"
"300","","87.5","87.5","749.1785714285714","749.1785714285714","black","no","xpyriment","legacy","legacy","0","204","NA","uniform","NA","NA","NA","1","undefined","1","0","55","55","55","0","55","55","55","NA","0","55","NA","NA","0","55","NA","55","0","55","NA","NA","NA","55","0","0","NA","NA","55","55","55","55","55","56","z","Wed Sep 27 15:29:26 2023","Executes Python code","yes","m21-ba-lexicalDecision.osexp","C:\Users\ekealey\Desktop","no","mono","no","18","no","white","no","yes","1080","legacy","55","55","C:/Users/ekealey/Desktop/subject-218.csv","xpyriment","Lentiform Loewenfeld","3.3.11","0","z","NA","NA","NA","NA","space","z","692","NA","NA","NA","NA","23572","692","2","legacy","1024","2","48000","-16","AB_m21","218","even","NW_L_COMP","ADDMANT","2171","263873","262010","255048","25901","NA","NA","NA","NA","NA","262511","NA","NA","NA","261510","NA","261481","2327","264173","NA","NA","NA","262551","2171","2315","NA","NA","263243","263269","261481","262511","262531","morph21_Oliver/Morris","49","41954","56","yes","1920","13"
"400","","87.71929824561404","87.71929824561404","750.8070175438596","750.8070175438596","black","no","xpyriment","legacy","legacy","0","201","NA","uniform","NA","NA","NA","1","undefined","1","0","56","56","56","0","56","56","56","NA","0","56","NA","NA","0","56","NA","56","0","56","NA","NA","NA","56","0","0","NA","NA","56","56","56","56","56","57","/","Wed Sep 27 15:29:26 2023","Executes Python code","yes","m21-ba-lexicalDecision.osexp","C:\Users\ekealey\Desktop","no","mono","no","18","no","white","no","yes","1080","legacy","56","56","C:/Users/ekealey/Desktop/subject-218.csv","xpyriment","Lentiform Loewenfeld","3.3.11","0","/","NA","NA","NA","NA","space","/","842","NA","NA","NA","NA","23572","842","2","legacy","1024","2","48000","-16","AB_m21","218","even","CW_S","WIDOWED","2171","269224","265705","267719","25901","NA","NA","NA","NA","NA","266208","NA","NA","NA","265204","NA","265175","2327","269624","NA","NA","NA","266248","2171","2315","NA","NA","267091","267115","265175","266207","266228","morph21_Oliver/Morris","50","42796","57","yes","1920","7"
"300","","87.93103448275862","87.93103448275862","751.0689655172414","751.0689655172414","black","no","xpyriment","legacy","legacy","0","204","NA","uniform","NA","NA","NA","1","undefined","1","0","57","57","57","0","57","57","57","NA","0","57","NA","NA","0","57","NA","57","0","57","NA","NA","NA","57","0","0","NA","NA","57","57","57","57","57","58","z","Wed Sep 27 15:29:26 2023","Executes Python code","yes","m21-ba-lexicalDecision.osexp","C:\Users\ekealey\Desktop","no","mono","no","18","no","white","no","yes","1080","legacy","57","57","C:/Users/ekealey/Desktop/subject-218.csv","xpyriment","Lentiform Loewenfeld","3.3.11","0","z","NA","NA","NA","NA","space","z","766","NA","NA","NA","NA","23572","766","2","legacy","1024","2","48000","-16","AB_m21","218","even","NW_L_COMP","IME","2171","273114","271175","267719","25901","NA","NA","NA","NA","NA","271677","NA","NA","NA","270673","NA","270637","2327","273415","NA","NA","NA","271717","2171","2315","NA","NA","272483","272510","270637","271677","271697","morph21_Oliver/Morris","51","43562","58","yes","1920","20"
"300","","88.13559322033899","88.13559322033899","750.4237288135594","750.4237288135594","black","no","xpyriment","legacy","legacy","0","205","NA","uniform","NA","NA","NA","1","undefined","1","0","58","58","58","0","58","58","58","NA","0","58","NA","NA","0","58","NA","58","0","58","NA","NA","NA","58","0","0","NA","NA","58","58","58","58","58","59","z","Wed Sep 27 15:29:26 2023","Executes Python code","yes","m21-ba-lexicalDecision.osexp","C:\Users\ekealey\Desktop","no","mono","no","18","no","white","no","yes","1080","legacy","58","58","C:/Users/ekealey/Desktop/subject-218.csv","xpyriment","Lentiform Loewenfeld","3.3.11","0","z","NA","NA","NA","NA","space","z","713","NA","NA","NA","NA","23572","713","2","legacy","1024","2","48000","-16","AB_m21","218","even","NW_S_SIMP","TILTARY","2171","276847","274964","267719","25901","NA","NA","NA","NA","NA","275465","NA","NA","NA","274463","NA","274435","2327","277147","NA","NA","NA","275505","2171","2315","NA","NA","276219","276244","274435","275465","275485","morph21_Oliver/Morris","52","44275","59","yes","1920","17"
"200","","88.33333333333333","88.33333333333333","752.7833333333333","752.7833333333333","black","no","xpyriment","legacy","legacy","0","208","NA","uniform","NA","NA","NA","1","undefined","1","0","59","59","59","0","59","59","59","NA","0","59","NA","NA","0","59","NA","59","0","59","NA","NA","NA","59","0","0","NA","NA","59","59","59","59","59","60","z","Wed Sep 27 15:29:26 2023","Executes Python code","yes","m21-ba-lexicalDecision.osexp","C:\Users\ekealey\Desktop","no","mono","no","18","no","white","no","yes","1080","legacy","59","59","C:/Users/ekealey/Desktop/subject-218.csv","xpyriment","Lentiform Loewenfeld","3.3.11","0","z","NA","NA","NA","NA","space","z","892","NA","NA","NA","NA","23572","892","2","legacy","1024","2","48000","-16","AB_m21","218","even","FILL_NW","PUCTS","2171","282255","278689","280750","25901","NA","NA","NA","NA","NA","279190","NA","NA","NA","278189","NA","278161","2327","282455","NA","NA","NA","279230","2171","2315","NA","NA","280123","280147","278161","279190","279210","morph21_Oliver/Morris","53","45167","60","yes","1920","40"
"300","","88.52459016393442","88.52459016393442","754.360655737705","754.360655737705","black","no","xpyriment","legacy","legacy","0","205","NA","uniform","NA","NA","NA","1","undefined","1","0","60","60","60","0","60","60","60","NA","0","60","NA","NA","0","60","NA","60","0","60","NA","NA","NA","60","0","0","NA","NA","60","60","60","60","60","61","z","Wed Sep 27 15:29:26 2023","Executes Python code","yes","m21-ba-lexicalDecision.osexp","C:\Users\ekealey\Desktop","no","mono","no","18","no","white","no","yes","1080","legacy","60","60","C:/Users/ekealey/Desktop/subject-218.csv","xpyriment","Lentiform Loewenfeld","3.3.11","0","z","NA","NA","NA","NA","space","z","849","NA","NA","NA","NA","23572","849","2","legacy","1024","2","48000","-16","AB_m21","218","even","NW_S_SIMP","WINKITY","2171","286015","283997","280750","25901","NA","NA","NA","NA","NA","284497","NA","NA","NA","283497","NA","283465","2327","286315","NA","NA","NA","284538","2171","2315","NA","NA","285388","285412","283465","284497","284518","morph21_Oliver/Morris","54","46016","61","yes","1920","21"
"300","","88.70967741935483","88.70967741935483","760.8870967741935","760.8870967741935","black","no","xpyriment","legacy","legacy","0","206","NA","uniform","NA","NA","NA","1","undefined","1","0","61","61","61","0","61","61","61","NA","0","61","NA","NA","0","61","NA","61","0","61","NA","NA","NA","61","0","0","NA","NA","61","61","61","61","61","62","z","Wed Sep 27 15:29:26 2023","Executes Python code","yes","m21-ba-lexicalDecision.osexp","C:\Users\ekealey\Desktop","no","mono","no","18","no","white","no","yes","1080","legacy","61","61","C:/Users/ekealey/Desktop/subject-218.csv","xpyriment","Lentiform Loewenfeld","3.3.11","0","z","NA","NA","NA","NA","space","z","1159","NA","NA","NA","NA","23572","1159","2","legacy","1024","2","48000","-16","AB_m21","218","even","NW_L_SIMP","PRAYANCE","2171","290176","287846","280750","25901","NA","NA","NA","NA","NA","288347","NA","NA","NA","287345","NA","287319","2327","290476","NA","NA","NA","288387","2171","2315","NA","NA","289547","289572","287319","288347","288367","morph21_Oliver/Morris","55","47175","62","yes","1920","1"
"250","","88.88888888888889","88.88888888888889","761.3809523809524","761.3809523809524","black","no","xpyriment","legacy","legacy","0","202","NA","uniform","NA","NA","NA","1","undefined","1","0","62","62","62","0","62","62","62","NA","0","62","NA","NA","0","62","NA","62","0","62","NA","NA","NA","62","0","0","NA","NA","62","62","62","62","62","63","/","Wed Sep 27 15:29:26 2023","Executes Python code","yes","m21-ba-lexicalDecision.osexp","C:\Users\ekealey\Desktop","no","mono","no","18","no","white","no","yes","1080","legacy","62","62","C:/Users/ekealey/Desktop/subject-218.csv","xpyriment","Lentiform Loewenfeld","3.3.11","0","/","NA","NA","NA","NA","space","/","792","NA","NA","NA","NA","23572","792","2","legacy","1024","2","48000","-16","AB_m21","218","even","CW_L","PUSHER","2171","295461","291998","293958","25901","NA","NA","NA","NA","NA","292499","NA","NA","NA","291497","NA","291468","2327","295711","NA","NA","NA","292539","2171","2315","NA","NA","293331","293355","291468","292499","292519","morph21_Oliver/Morris","56","47967","63","yes","1920","13"
"200","","89.0625","89.0625","760.5","760.5","black","no","xpyriment","legacy","legacy","0","201","NA","uniform","NA","NA","NA","1","undefined","1","0","63","63","63","0","63","63","63","NA","0","63","NA","NA","0","63","NA","63","0","63","NA","NA","NA","63","0","0","NA","NA","63","63","63","63","63","64","/","Wed Sep 27 15:29:26 2023","Executes Python code","yes","m21-ba-lexicalDecision.osexp","C:\Users\ekealey\Desktop","no","mono","no","18","no","white","no","yes","1080","legacy","63","63","C:/Users/ekealey/Desktop/subject-218.csv","xpyriment","Lentiform Loewenfeld","3.3.11","0","/","NA","NA","NA","NA","space","/","705","NA","NA","NA","NA","23572","705","2","legacy","1024","2","48000","-16","AB_m21","218","even","CW_S","AMUSEMENT","2171","299127","297252","293958","25901","NA","NA","NA","NA","NA","297753","NA","NA","NA","296752","NA","296721","2327","299327","NA","NA","NA","297794","2171","2315","NA","NA","298500","298524","296721","297753","297774","morph21_Oliver/Morris","57","48672","64","yes","1920","38"
"400","","87.6923076923077","87.6923076923077","764.5230769230769","764.5230769230769","black","no","xpyriment","legacy","legacy","0","205","NA","uniform","NA","NA","NA","0","undefined","0","0","64","64","64","0","64","64","64","NA","0","64","NA","NA","0","64","NA","64","0","64","NA","NA","NA","64","0","0","NA","NA","64","64","64","64","64","65","z","Wed Sep 27 15:29:26 2023","Executes Python code","yes","m21-ba-lexicalDecision.osexp","C:\Users\ekealey\Desktop","no","mono","no","18","no","white","no","yes","1080","legacy","64","64","C:/Users/ekealey/Desktop/subject-218.csv","xpyriment","Lentiform Loewenfeld","3.3.11","0","/","NA","NA","NA","NA","space","/","1022","NA","NA","NA","NA","23572","1022","2","legacy","1024","2","48000","-16","AB_m21","218","even","NW_S_SIMP","SCHEMENESS","2171","303056","300864","293958","25901","NA","NA","NA","NA","NA","301365","NA","NA","NA","300364","NA","300329","2327","303456","NA","NA","NA","301405","2171","2315","NA","NA","302427","302451","300329","301365","301385","morph21_Oliver/Morris","57","49694","65","yes","1920","15"
"250","","87.87878787878788","87.87878787878788","763.1666666666666","763.1666666666666","black","no","xpyriment","legacy","legacy","0","203","NA","uniform","NA","NA","NA","1","undefined","1","0","65","65","65","0","65","65","65","NA","0","65","NA","NA","0","65","NA","65","0","65","NA","NA","NA","65","0","0","NA","NA","65","65","65","65","65","66","z","Wed Sep 27 15:29:26 2023","Executes Python code","yes","m21-ba-lexicalDecision.osexp","C:\Users\ekealey\Desktop","no","mono","no","18","no","white","no","yes","1080","legacy","65","65","C:/Users/ekealey/Desktop/subject-218.csv","xpyriment","Lentiform Loewenfeld","3.3.11","0","z","NA","NA","NA","NA","space","z","675","NA","NA","NA","NA","23572","675","2","legacy","1024","2","48000","-16","AB_m21","218","even","NW_S_COMP","TREASONIME","2171","308334","304986","306831","25901","NA","NA","NA","NA","NA","305487","NA","NA","NA","304485","NA","304454","2327","308584","NA","NA","NA","305527","2171","2315","NA","NA","306203","306227","304454","305487","305507","morph21_Oliver/Morris","58","50369","66","yes","1920","14"
"250","","88.05970149253731","88.05970149253731","761.9850746268656","761.9850746268656","black","no","xpyriment","legacy","legacy","0","202","NA","uniform","NA","NA","NA","1","undefined","1","0","66","66","66","0","66","66","66","NA","0","66","NA","NA","0","66","NA","66","0","66","NA","NA","NA","66","0","0","NA","NA","66","66","66","66","66","67","/","Wed Sep 27 15:29:26 2023","Executes Python code","yes","m21-ba-lexicalDecision.osexp","C:\Users\ekealey\Desktop","no","mono","no","18","no","white","no","yes","1080","legacy","66","66","C:/Users/ekealey/Desktop/subject-218.csv","xpyriment","Lentiform Loewenfeld","3.3.11","0","/","NA","NA","NA","NA","space","/","684","NA","NA","NA","NA","23572","684","2","legacy","1024","2","48000","-16","AB_m21","218","even","CW_L","DREAMER","2171","312009","310153","306831","25901","NA","NA","NA","NA","NA","310653","NA","NA","NA","309652","NA","309622","2327","312259","NA","NA","NA","310694","2171","2315","NA","NA","311379","311405","309622","310653","310674","morph21_Oliver/Morris","59","51053","67","yes","1920","12"
"400","","88.23529411764706","88.23529411764706","760.3088235294117","760.3088235294117","black","no","xpyriment","legacy","legacy","0","205","NA","uniform","NA","NA","NA","1","undefined","1","0","67","67","67","0","67","67","67","NA","0","67","NA","NA","0","67","NA","67","0","67","NA","NA","NA","67","0","0","NA","NA","67","67","67","67","67","68","z","Wed Sep 27 15:29:26 2023","Executes Python code","yes","m21-ba-lexicalDecision.osexp","C:\Users\ekealey\Desktop","no","mono","no","18","no","white","no","yes","1080","legacy","67","67","C:/Users/ekealey/Desktop/subject-218.csv","xpyriment","Lentiform Loewenfeld","3.3.11","0","z","NA","NA","NA","NA","space","z","648","NA","NA","NA","NA","23572","648","2","legacy","1024","2","48000","-16","AB_m21","218","even","NW_S_SIMP","URNIST","2171","315623","313805","306831","25901","NA","NA","NA","NA","NA","314306","NA","NA","NA","313303","NA","313275","2327","316023","NA","NA","NA","314346","2171","2315","NA","NA","314995","315020","313274","314306","314326","morph21_Oliver/Morris","60","51701","68","yes","1920","5"
"200","","88.40579710144928","88.40579710144928","760.7101449275362","760.7101449275362","black","no","xpyriment","legacy","legacy","0","205","NA","uniform","NA","NA","NA","1","undefined","1","0","68","68","68","0","68","68","68","NA","0","68","NA","NA","0","68","NA","68","0","68","NA","NA","NA","68","0","0","NA","NA","68","68","68","68","68","69","z","Wed Sep 27 15:29:26 2023","Executes Python code","yes","m21-ba-lexicalDecision.osexp","C:\Users\ekealey\Desktop","no","mono","no","18","no","white","no","yes","1080","legacy","68","68","C:/Users/ekealey/Desktop/subject-218.csv","xpyriment","Lentiform Loewenfeld","3.3.11","0","z","NA","NA","NA","NA","space","z","788","NA","NA","NA","NA","23572","788","2","legacy","1024","2","48000","-16","AB_m21","218","even","NW_S_SIMP","NULLISH","2171","321022","317562","319519","25901","NA","NA","NA","NA","NA","318062","NA","NA","NA","317062","NA","317030","2327","321222","NA","NA","NA","318102","2171","2315","NA","NA","318891","318915","317030","318062","318082","morph21_Oliver/Morris","61","52489","69","yes","1920","23"
"250","","88.57142857142857","88.57142857142857","761.2142857142857","761.2142857142857","black","no","xpyriment","legacy","legacy","0","201","NA","uniform","NA","NA","NA","1","undefined","1","0","69","69","69","0","69","69","69","NA","0","69","NA","NA","0","69","NA","69","0","69","NA","NA","NA","69","0","0","NA","NA","69","69","69","69","69","70","/","Wed Sep 27 15:29:26 2023","Executes Python code","yes","m21-ba-lexicalDecision.osexp","C:\Users\ekealey\Desktop","no","mono","no","18","no","white","no","yes","1080","legacy","69","69","C:/Users/ekealey/Desktop/subject-218.csv","xpyriment","Lentiform Loewenfeld","3.3.11","0","/","NA","NA","NA","NA","space","/","796","NA","NA","NA","NA","23572","796","2","legacy","1024","2","48000","-16","AB_m21","218","even","CW_S","JAILER","2171","324719","322753","319519","25901","NA","NA","NA","NA","NA","323254","NA","NA","NA","322253","NA","322221","2327","324969","NA","NA","NA","323295","2171","2315","NA","NA","324091","324115","322221","323254","323275","morph21_Oliver/Morris","62","53285","70","yes","1920","13"
"400","","88.73239436619718","88.73239436619718","758.0845070422536","758.0845070422536","black","no","xpyriment","legacy","legacy","0","207","NA","uniform","NA","NA","NA","1","undefined","1","0","70","70","70","0","70","70","70","NA","0","70","NA","NA","0","70","NA","70","0","70","NA","NA","NA","70","0","0","NA","NA","70","70","70","70","70","71","/","Wed Sep 27 15:29:26 2023","Executes Python code","yes","m21-ba-lexicalDecision.osexp","C:\Users\ekealey\Desktop","no","mono","no","18","no","white","no","yes","1080","legacy","70","70","C:/Users/ekealey/Desktop/subject-218.csv","xpyriment","Lentiform Loewenfeld","3.3.11","0","/","NA","NA","NA","NA","space","/","539","NA","NA","NA","NA","23572","539","2","legacy","1024","2","48000","-16","AB_m21","218","even","FILL_W","EAT","2171","328230","326523","319519","25901","NA","NA","NA","NA","NA","327023","NA","NA","NA","326022","NA","325995","2327","328630","NA","NA","NA","327064","2171","2315","NA","NA","327603","327627","325995","327023","327044","morph21_Oliver/Morris","63","53824","71","yes","1920","25"
"300","","88.88888888888889","88.88888888888889","758.5972222222222","758.5972222222222","black","no","xpyriment","legacy","legacy","0","201","NA","uniform","NA","NA","NA","1","undefined","1","0","71","71","71","0","71","71","71","NA","0","71","NA","NA","0","71","NA","71","0","71","NA","NA","NA","71","0","0","NA","NA","71","71","71","71","71","72","/","Wed Sep 27 15:29:26 2023","Executes Python code","yes","m21-ba-lexicalDecision.osexp","C:\Users\ekealey\Desktop","no","mono","no","18","no","white","no","yes","1080","legacy","71","71","C:/Users/ekealey/Desktop/subject-218.csv","xpyriment","Lentiform Loewenfeld","3.3.11","0","/","NA","NA","NA","NA","space","/","795","NA","NA","NA","NA","23572","795","2","legacy","1024","2","48000","-16","AB_m21","218","even","CW_S","BUYER","2171","333653","330185","332150","25901","NA","NA","NA","NA","NA","330686","NA","NA","NA","329685","NA","329654","2327","333953","NA","NA","NA","330727","2171","2315","NA","NA","331523","331546","329654","330686","330707","morph21_Oliver/Morris","64","54619","72","yes","1920","21"
"300","","89.04109589041096","89.04109589041096","756.8356164383562","756.8356164383562","black","no","xpyriment","legacy","legacy","0","202","NA","uniform","NA","NA","NA","1","undefined","1","0","72","72","72","0","72","72","72","NA","0","72","NA","NA","0","72","NA","72","0","72","NA","NA","NA","72","0","0","NA","NA","72","72","72","72","72","73","/","Wed Sep 27 15:29:26 2023","Executes Python code","yes","m21-ba-lexicalDecision.osexp","C:\Users\ekealey\Desktop","no","mono","no","18","no","white","no","yes","1080","legacy","72","72","C:/Users/ekealey/Desktop/subject-218.csv","xpyriment","Lentiform Loewenfeld","3.3.11","0","/","NA","NA","NA","NA","space","/","630","NA","NA","NA","NA","23572","630","2","legacy","1024","2","48000","-16","AB_m21","218","even","CW_L","PROFESSOR","2171","337302","335504","332150","25901","NA","NA","NA","NA","NA","336004","NA","NA","NA","335001","NA","334969","2327","337602","NA","NA","NA","336045","2171","2315","NA","NA","336676","336699","334969","336004","336025","morph21_Oliver/Morris","65","55249","73","yes","1920","47"
"400","","89.1891891891892","89.1891891891892","756.4324324324324","756.4324324324324","black","no","xpyriment","legacy","legacy","0","205","NA","uniform","NA","NA","NA","1","undefined","1","0","73","73","73","0","73","73","73","NA","0","73","NA","NA","0","73","NA","73","0","73","NA","NA","NA","73","0","0","NA","NA","73","73","73","73","73","74","z","Wed Sep 27 15:29:26 2023","Executes Python code","yes","m21-ba-lexicalDecision.osexp","C:\Users\ekealey\Desktop","no","mono","no","18","no","white","no","yes","1080","legacy","73","73","C:/Users/ekealey/Desktop/subject-218.csv","xpyriment","Lentiform Loewenfeld","3.3.11","0","z","NA","NA","NA","NA","space","z","727","NA","NA","NA","NA","23572","727","2","legacy","1024","2","48000","-16","AB_m21","218","even","NW_S_SIMP","RAMPIZE","2171","341039","339140","332150","25901","NA","NA","NA","NA","NA","339641","NA","NA","NA","338638","NA","338604","2327","341439","NA","NA","NA","339683","2171","2315","NA","NA","340411","340434","338604","339641","339662","morph21_Oliver/Morris","66","55976","74","yes","1920","6"
"350","","89.33333333333333","89.33333333333333","756.72","756.72","black","no","xpyriment","legacy","legacy","0","208","NA","uniform","NA","NA","NA","undefined","undefined","1","0","74","74","74","0","74","74","74","NA","0","74","NA","NA","0","74","NA","74","0","74","NA","NA","NA","74","0","0","NA","NA","74","74","74","74","74","75","z","Wed Sep 27 15:29:26 2023","Executes Python code","yes","m21-ba-lexicalDecision.osexp","C:\Users\ekealey\Desktop","no","mono","no","18","no","white","no","yes","1080","legacy","74","74","C:/Users/ekealey/Desktop/subject-218.csv","xpyriment","Lentiform Loewenfeld","3.3.11","0","space","space","NA","NA","NA","space","z","6882","6882","NA","NA","NA","23572","778","2","legacy","1024","2","48000","-16","AB_m21","218","even","FILL_NW","DARF","2171","346421","342970","344918","25901","346777","NA","NA","NA","NA","343473","NA","NA","NA","342468","NA","342442","2327","353659","NA","NA","NA","343513","2171","2315","NA","NA","344291","344315","342442","343473","343493","morph21_Oliver/Morris","67","56754","75","yes","1920","10"
"350","","89.47368421052632","89.47368421052632","755.7894736842105","755.7894736842105","black","no","xpyriment","legacy","legacy","0","202","NA","uniform","NA","NA","NA","1","undefined","1","0","75","75","75","0","75","75","75","NA","0","75","NA","NA","0","75","NA","75","0","75","NA","NA","NA","75","0","0","NA","NA","75","75","75","75","75","76","/","Wed Sep 27 15:29:26 2023","Executes Python code","yes","m21-ba-lexicalDecision.osexp","C:\Users\ekealey\Desktop","no","mono","no","18","no","white","no","yes","1080","legacy","75","75","C:/Users/ekealey/Desktop/subject-218.csv","xpyriment","Lentiform Loewenfeld","3.3.11","0","/","space","NA","NA","NA","space","/","686","6882","NA","NA","NA","23572","686","2","legacy","1024","2","48000","-16","AB_m21","218","even","CW_L","PAINTER","2171","357104","355247","344918","25901","346777","NA","NA","NA","NA","355748","NA","NA","NA","354746","NA","354720","2327","357454","NA","NA","NA","355788","2171","2315","NA","NA","356475","356500","354720","355748","355768","morph21_Oliver/Morris","68","57440","76","yes","1920","18"
"200","","89.6103896103896","89.6103896103896","756.4285714285714","756.4285714285714","black","no","xpyriment","legacy","legacy","0","207","NA","uniform","NA","NA","NA","1","undefined","1","0","76","76","76","0","76","76","76","NA","0","76","NA","NA","0","76","NA","76","0","76","NA","NA","NA","76","0","0","NA","NA","76","76","76","76","76","77","/","Wed Sep 27 15:29:26 2023","Executes Python code","yes","m21-ba-lexicalDecision.osexp","C:\Users\ekealey\Desktop","no","mono","no","18","no","white","no","yes","1080","legacy","76","76","C:/Users/ekealey/Desktop/subject-218.csv","xpyriment","Lentiform Loewenfeld","3.3.11","0","/","space","NA","NA","NA","space","/","805","6882","NA","NA","NA","23572","805","2","legacy","1024","2","48000","-16","AB_m21","218","even","FILL_W","FLOAT","2171","360950","358975","344918","25901","346777","NA","NA","NA","NA","359476","NA","NA","NA","358474","NA","358447","2327","361150","NA","NA","NA","359517","2171","2315","NA","NA","360323","360347","358447","359476","359497","morph21_Oliver/Morris","69","58245","77","yes","1920","30"
"200","","89.74358974358974","89.74358974358974","755.5128205128206","755.5128205128206","black","no","xpyriment","legacy","legacy","0","207","NA","uniform","NA","NA","NA","1","undefined","1","0","77","77","77","0","77","77","77","NA","0","77","NA","NA","0","77","NA","77","0","77","NA","NA","NA","77","0","0","NA","NA","77","77","77","77","77","78","/","Wed Sep 27 15:29:26 2023","Executes Python code","yes","m21-ba-lexicalDecision.osexp","C:\Users\ekealey\Desktop","no","mono","no","18","no","white","no","yes","1080","legacy","77","77","C:/Users/ekealey/Desktop/subject-218.csv","xpyriment","Lentiform Loewenfeld","3.3.11","0","/","space","NA","NA","NA","space","/","685","6882","NA","NA","NA","23572","685","2","legacy","1024","2","48000","-16","AB_m21","218","even","FILL_W","FLESH","2171","366040","362681","364537","25901","346777","NA","NA","NA","NA","363182","NA","NA","NA","362179","NA","362152","2327","366240","NA","NA","NA","363222","2171","2315","NA","NA","363907","363932","362152","363182","363202","morph21_Oliver/Morris","70","58930","78","yes","1920","32"
"250","","89.87341772151899","89.87341772151899","755.8860759493671","755.8860759493671","black","no","xpyriment","legacy","legacy","0","204","NA","uniform","NA","NA","NA","1","undefined","1","0","78","78","78","0","78","78","78","NA","0","78","NA","NA","0","78","NA","78","0","78","NA","NA","NA","78","0","0","NA","NA","78","78","78","78","78","79","z","Wed Sep 27 15:29:26 2023","Executes Python code","yes","m21-ba-lexicalDecision.osexp","C:\Users\ekealey\Desktop","no","mono","no","18","no","white","no","yes","1080","legacy","78","78","C:/Users/ekealey/Desktop/subject-218.csv","xpyriment","Lentiform Loewenfeld","3.3.11","0","z","space","NA","NA","NA","space","z","785","6882","NA","NA","NA","23572","785","2","legacy","1024","2","48000","-16","AB_m21","218","even","NW_L_COMP","FREENELS","2171","369726","367773","364537","25901","346777","NA","NA","NA","NA","368274","NA","NA","NA","367271","NA","367243","2327","369976","NA","NA","NA","368314","2171","2315","NA","NA","369099","369123","367243","368274","368294","morph21_Oliver/Morris","71","59715","79","yes","1920","15"
"400","","88.75","88.75","757.575","757.575","black","no","xpyriment","legacy","legacy","0","206","NA","uniform","NA","NA","NA","0","undefined","0","0","79","79","79","0","79","79","79","NA","0","79","NA","NA","0","79","NA","79","0","79","NA","NA","NA","79","0","0","NA","NA","79","79","79","79","79","80","z","Wed Sep 27 15:29:26 2023","Executes Python code","yes","m21-ba-lexicalDecision.osexp","C:\Users\ekealey\Desktop","no","mono","no","18","no","white","no","yes","1080","legacy","79","79","C:/Users/ekealey/Desktop/subject-218.csv","xpyriment","Lentiform Loewenfeld","3.3.11","0","/","space","NA","NA","NA","space","/","891","6882","NA","NA","NA","23572","891","2","legacy","1024","2","48000","-16","AB_m21","218","even","NW_L_SIMP","BLOODER","2171","373576","371513","364537","25901","346777","NA","NA","NA","NA","372015","NA","NA","NA","371013","NA","370984","2327","373976","NA","NA","NA","372055","2171","2315","NA","NA","372947","372971","370984","372015","372035","morph21_Oliver/Morris","71","60606","80","yes","1920","24"
"250","","88.88888888888889","88.88888888888889","756.2469135802469","756.2469135802469","black","no","xpyriment","legacy","legacy","0","207","NA","uniform","NA","NA","NA","1","undefined","1","0","80","80","80","0","80","80","80","NA","0","80","NA","NA","0","80","NA","80","0","80","NA","NA","NA","80","0","0","NA","NA","80","80","80","80","80","81","/","Wed Sep 27 15:29:26 2023","Executes Python code","yes","m21-ba-lexicalDecision.osexp","C:\Users\ekealey\Desktop","no","mono","no","18","no","white","no","yes","1080","legacy","80","80","C:/Users/ekealey/Desktop/subject-218.csv","xpyriment","Lentiform Loewenfeld","3.3.11","0","/","space","NA","NA","NA","space","/","650","6882","NA","NA","NA","23572","650","2","legacy","1024","2","48000","-16","AB_m21","218","even","FILL_W","TASTE","2171","378855","375531","377350","25901","346777","NA","NA","NA","NA","376031","NA","NA","NA","375031","NA","375001","2327","379105","NA","NA","NA","376072","2171","2315","NA","NA","376723","376747","375001","376031","376052","morph21_Oliver/Morris","72","61256","81","yes","1920","34"
"250","","89.02439024390245","89.02439024390245","754.6463414634146","754.6463414634146","black","no","xpyriment","legacy","legacy","0","203","NA","uniform","NA","NA","NA","1","undefined","1","0","81","81","81","0","81","81","81","NA","0","81","NA","NA","0","81","NA","81","0","81","NA","NA","NA","81","0","0","NA","NA","81","81","81","81","81","82","z","Wed Sep 27 15:29:26 2023","Executes Python code","yes","m21-ba-lexicalDecision.osexp","C:\Users\ekealey\Desktop","no","mono","no","18","no","white","no","yes","1080","legacy","81","81","C:/Users/ekealey/Desktop/subject-218.csv","xpyriment","Lentiform Loewenfeld","3.3.11","0","z","space","NA","NA","NA","space","z","625","6882","NA","NA","NA","23572","625","2","legacy","1024","2","48000","-16","AB_m21","218","even","NW_S_COMP","BEEREL","2171","382441","380644","377350","25901","346777","NA","NA","NA","NA","381144","NA","NA","NA","380144","NA","380112","2327","382691","NA","NA","NA","381185","2171","2315","NA","NA","381811","381836","380112","381144","381165","morph21_Oliver/Morris","73","61881","82","yes","1920","5"
"200","","89.1566265060241","89.1566265060241","754.9879518072289","754.9879518072289","black","no","xpyriment","legacy","legacy","0","202","NA","uniform","NA","NA","NA","1","undefined","1","0","82","82","82","0","82","82","82","NA","0","82","NA","NA","0","82","NA","82","0","82","NA","NA","NA","82","0","0","NA","NA","82","82","82","82","82","83","/","Wed Sep 27 15:29:26 2023","Executes Python code","yes","m21-ba-lexicalDecision.osexp","C:\Users\ekealey\Desktop","no","mono","no","18","no","white","no","yes","1080","legacy","82","82","C:/Users/ekealey/Desktop/subject-218.csv","xpyriment","Lentiform Loewenfeld","3.3.11","0","/","space","NA","NA","NA","space","/","783","6882","NA","NA","NA","23572","783","2","legacy","1024","2","48000","-16","AB_m21","218","even","CW_L","SAILOR","2171","386190","384238","377350","25901","346777","NA","NA","NA","NA","384740","NA","NA","NA","383736","NA","383711","2327","386390","NA","NA","NA","384780","2171","2315","NA","NA","385564","385587","383711","384740","384760","morph21_Oliver/Morris","74","62664","83","yes","1920","43"
"400","","89.28571428571429","89.28571428571429","753.8809523809524","753.8809523809524","black","no","xpyriment","legacy","legacy","0","207","NA","uniform","NA","NA","NA","1","undefined","1","0","83","83","83","0","83","83","83","NA","0","83","NA","NA","0","83","NA","83","0","83","NA","NA","NA","83","0","0","NA","NA","83","83","83","83","83","84","/","Wed Sep 27 15:29:26 2023","Executes Python code","yes","m21-ba-lexicalDecision.osexp","C:\Users\ekealey\Desktop","no","mono","no","18","no","white","no","yes","1080","legacy","83","83","C:/Users/ekealey/Desktop/subject-218.csv","xpyriment","Lentiform Loewenfeld","3.3.11","0","/","space","NA","NA","NA","space","/","662","6882","NA","NA","NA","23572","662","2","legacy","1024","2","48000","-16","AB_m21","218","even","FILL_W","QUIT","2171","391279","387942","389775","25901","346777","NA","NA","NA","NA","388444","NA","NA","NA","387440","NA","387414","2327","391679","NA","NA","NA","388484","2171","2315","NA","NA","389147","389170","387414","388443","388464","morph21_Oliver/Morris","75","63326","84","yes","1920","21"
"400","","89.41176470588235","89.41176470588235","753.7058823529412","753.7058823529412","black","no","xpyriment","legacy","legacy","0","207","NA","uniform","NA","NA","NA","1","undefined","1","0","84","84","84","0","84","84","84","NA","0","84","NA","NA","0","84","NA","84","0","84","NA","NA","NA","84","0","0","NA","NA","84","84","84","84","84","85","/","Wed Sep 27 15:29:26 2023","Executes Python code","yes","m21-ba-lexicalDecision.osexp","C:\Users\ekealey\Desktop","no","mono","no","18","no","white","no","yes","1080","legacy","84","84","C:/Users/ekealey/Desktop/subject-218.csv","xpyriment","Lentiform Loewenfeld","3.3.11","0","/","space","NA","NA","NA","space","/","739","6882","NA","NA","NA","23572","739","2","legacy","1024","2","48000","-16","AB_m21","218","even","FILL_W","FLIRT","2171","395150","393241","389775","25901","346777","NA","NA","NA","NA","393742","NA","NA","NA","392739","NA","392709","2327","395550","NA","NA","NA","393783","2171","2315","NA","NA","394523","394547","392709","393742","393763","morph21_Oliver/Morris","76","64065","85","yes","1920","1"
"250","","89.53488372093024","89.53488372093024","752.7209302325581","752.7209302325581","black","no","xpyriment","legacy","legacy","0","204","NA","uniform","NA","NA","NA","1","undefined","1","0","85","85","85","0","85","85","85","NA","0","85","NA","NA","0","85","NA","85","0","85","NA","NA","NA","85","0","0","NA","NA","85","85","85","85","85","86","z","Wed Sep 27 15:29:26 2023","Executes Python code","yes","m21-ba-lexicalDecision.osexp","C:\Users\ekealey\Desktop","no","mono","no","18","no","white","no","yes","1080","legacy","85","85","C:/Users/ekealey/Desktop/subject-218.csv","xpyriment","Lentiform Loewenfeld","3.3.11","0","z","space","NA","NA","NA","space","z","669","6882","NA","NA","NA","23572","669","2","legacy","1024","2","48000","-16","AB_m21","218","even","NW_L_COMP","TRIPADY","2171","398925","397088","389775","25901","346777","NA","NA","NA","NA","397588","NA","NA","NA","396588","NA","396558","2327","399175","NA","NA","NA","397629","2171","2315","NA","NA","398299","398322","396558","397588","397609","morph21_Oliver/Morris","77","64734","86","yes","1920","2"
"200","","89.65517241379311","89.65517241379311","749.1609195402299","749.1609195402299","black","no","xpyriment","legacy","legacy","0","207","NA","uniform","NA","NA","NA","1","undefined","1","0","86","86","86","0","86","86","86","NA","0","86","NA","NA","0","86","NA","86","0","86","NA","NA","NA","86","0","0","NA","NA","86","86","86","86","86","87","/","Wed Sep 27 15:29:26 2023","Executes Python code","yes","m21-ba-lexicalDecision.osexp","C:\Users\ekealey\Desktop","no","mono","no","18","no","white","no","yes","1080","legacy","86","86","C:/Users/ekealey/Desktop/subject-218.csv","xpyriment","Lentiform Loewenfeld","3.3.11","0","/","space","NA","NA","NA","space","/","443","6882","NA","NA","NA","23572","443","2","legacy","1024","2","48000","-16","AB_m21","218","even","FILL_W","TAX","2171","403821","400706","402318","25901","346777","NA","NA","NA","NA","401208","NA","NA","NA","400205","NA","400179","2327","404021","NA","NA","NA","401248","2171","2315","NA","NA","401691","401715","400179","401208","401228","morph21_Oliver/Morris","78","65177","87","yes","1920","45"
"400","","89.77272727272727","89.77272727272727","749.3409090909091","749.3409090909091","black","no","xpyriment","legacy","legacy","0","202","NA","uniform","NA","NA","NA","1","undefined","1","0","87","87","87","0","87","87","87","NA","0","87","NA","NA","0","87","NA","87","0","87","NA","NA","NA","87","0","0","NA","NA","87","87","87","87","87","88","/","Wed Sep 27 15:29:26 2023","Executes Python code","yes","m21-ba-lexicalDecision.osexp","C:\Users\ekealey\Desktop","no","mono","no","18","no","white","no","yes","1080","legacy","87","87","C:/Users/ekealey/Desktop/subject-218.csv","xpyriment","Lentiform Loewenfeld","3.3.11","0","/","space","NA","NA","NA","space","/","765","6882","NA","NA","NA","23572","765","2","legacy","1024","2","48000","-16","AB_m21","218","even","CW_L","DRYNESS","2171","407480","405541","402318","25901","346777","NA","NA","NA","NA","406044","NA","NA","NA","405039","NA","405014","2327","407880","NA","NA","NA","406085","2171","2315","NA","NA","406851","406876","405014","406044","406064","morph21_Oliver/Morris","79","65942","88","yes","1920","42"
"400","","89.88764044943821","89.88764044943821","746.7752808988764","746.7752808988764","black","no","xpyriment","legacy","legacy","0","208","NA","uniform","NA","NA","NA","1","undefined","1","0","88","88","88","0","88","88","88","NA","0","88","NA","NA","0","88","NA","88","0","88","NA","NA","NA","88","0","0","NA","NA","88","88","88","88","88","89","z","Wed Sep 27 15:29:26 2023","Executes Python code","yes","m21-ba-lexicalDecision.osexp","C:\Users\ekealey\Desktop","no","mono","no","18","no","white","no","yes","1080","legacy","88","88","C:/Users/ekealey/Desktop/subject-218.csv","xpyriment","Lentiform Loewenfeld","3.3.11","0","z","space","NA","NA","NA","space","z","521","6882","NA","NA","NA","23572","521","2","legacy","1024","2","48000","-16","AB_m21","218","even","FILL_NW","ULNS","2171","411111","409420","402318","25901","346777","NA","NA","NA","NA","409920","NA","NA","NA","408920","NA","408885","2327","411512","NA","NA","NA","409961","2171","2315","NA","NA","410483","410508","408885","409920","409941","morph21_Oliver/Morris","80","66463","89","yes","1920","45"
"200","","90","90","745.1777777777778","745.1777777777778","black","no","xpyriment","legacy","legacy","0","207","NA","uniform","NA","NA","NA","1","undefined","1","0","89","89","89","0","89","89","89","NA","0","89","NA","NA","0","89","NA","89","0","89","NA","NA","NA","89","0","0","NA","NA","89","89","89","89","89","90","/","Wed Sep 27 15:29:26 2023","Executes Python code","yes","m21-ba-lexicalDecision.osexp","C:\Users\ekealey\Desktop","no","mono","no","18","no","white","no","yes","1080","legacy","89","89","C:/Users/ekealey/Desktop/subject-218.csv","xpyriment","Lentiform Loewenfeld","3.3.11","0","/","space","NA","NA","NA","space","/","603","6882","NA","NA","NA","23572","603","2","legacy","1024","2","48000","-16","AB_m21","218","even","FILL_W","TEST","2171","416317","413041","414815","25901","346777","NA","NA","NA","NA","413542","NA","NA","NA","412539","NA","412510","2327","416518","NA","NA","NA","413583","2171","2315","NA","NA","414186","414210","412510","413542","413563","morph21_Oliver/Morris","81","67066","90","yes","1920","47"
"300","","90.10989010989012","90.10989010989012","744.7802197802198","744.7802197802198","black","no","xpyriment","legacy","legacy","0","204","NA","uniform","NA","NA","NA","1","undefined","1","0","90","90","90","0","90","90","90","NA","0","90","NA","NA","0","90","NA","90","0","90","NA","NA","NA","90","0","0","NA","NA","90","90","90","90","90","91","z","Wed Sep 27 15:29:26 2023","Executes Python code","yes","m21-ba-lexicalDecision.osexp","C:\Users\ekealey\Desktop","no","mono","no","18","no","white","no","yes","1080","legacy","90","90","C:/Users/ekealey/Desktop/subject-218.csv","xpyriment","Lentiform Loewenfeld","3.3.11","0","z","space","NA","NA","NA","space","z","709","6882","NA","NA","NA","23572","709","2","legacy","1024","2","48000","-16","AB_m21","218","even","NW_L_COMP","SHEETEL","2171","419951","418071","414815","25901","346777","NA","NA","NA","NA","418572","NA","NA","NA","417570","NA","417544","2327","420251","NA","NA","NA","418613","2171","2315","NA","NA","419322","419347","417544","418572","418593","morph21_Oliver/Morris","82","67775","91","yes","1920","5"
"250","","90.21739130434783","90.21739130434783","744.1739130434783","744.1739130434783","black","no","xpyriment","legacy","legacy","0","205","NA","uniform","NA","NA","NA","1","undefined","1","0","91","91","91","0","91","91","91","NA","0","91","NA","NA","0","91","NA","91","0","91","NA","NA","NA","91","0","0","NA","NA","91","91","91","91","91","92","z","Wed Sep 27 15:29:26 2023","Executes Python code","yes","m21-ba-lexicalDecision.osexp","C:\Users\ekealey\Desktop","no","mono","no","18","no","white","no","yes","1080","legacy","91","91","C:/Users/ekealey/Desktop/subject-218.csv","xpyriment","Lentiform Loewenfeld","3.3.11","0","z","space","NA","NA","NA","space","z","689","6882","NA","NA","NA","23572","689","2","legacy","1024","2","48000","-16","AB_m21","218","even","NW_S_SIMP","DIGORY","2171","423639","421779","414815","25901","346777","NA","NA","NA","NA","422280","NA","NA","NA","421279","NA","421251","2327","423889","NA","NA","NA","422321","2171","2315","NA","NA","423011","423035","421251","422280","422301","morph21_Oliver/Morris","83","68464","92","yes","1920","11"
