"ITI","_prepare","acc","accuracy","average_response_time","avg_rt","background","bidi","canvas_backend","clock_backend","color_backend","compensation","cond_trig","condtrigtime","coordinates","coroutines_cycles","coroutines_duration","coroutines_mean_cycle_duration","correct","correct_instructions_1","correct_new_keyboard_response_1","count_AB_m21","count_ITI","count_blank_screen","count_blink_screen","count_block1","count_break1","count_break2","count_break3_1","count_canvas","count_close_port","count_cond_trigger","count_correct_trigger","count_def_chain","count_end_screen","count_fixation_1","count_getting_started","count_inc_counter","count_instructions_1","count_logger","count_logscript","count_new_inline_script","count_new_inline_script_2","count_new_keyboard_response_1","count_open_port","count_reset_counter_prep","count_reset_counter_run","count_reset_counter_run_1","count_response_trigger_trial","count_responsescreen","count_sequence","count_target_present","count_word_trigger","counter","cresp","datetime","description","disable_garbage_collection","experiment_file","experiment_path","font_bold","font_family","font_italic","font_size","font_underline","foreground","form_clicks","fullscreen","height","keyboard_backend","live_row","live_row_block1","logfile","mouse_backend","opensesame_codename","opensesame_version","repeat_cycle","response","response_break1","response_break2","response_break3_1","response_end_screen","response_instructions_1","response_new_keyboard_response_1","response_time","response_time_break1","response_time_break2","response_time_break3_1","response_time_end_screen","response_time_instructions_1","response_time_new_keyboard_response_1","round_decimals","sampler_backend","sound_buf_size","sound_channels","sound_freq","sound_sample_size","start","subject_nr","subject_parity","targ_type","target","time_AB_m21","time_ITI","time_blank_screen","time_blink_screen","time_block1","time_break1","time_break2","time_break3_1","time_canvas","time_close_port","time_cond_trigger","time_correct_trigger","time_def_chain","time_end_screen","time_fixation_1","time_getting_started","time_inc_counter","time_instructions_1","time_logger","time_logscript","time_new_inline_script","time_new_inline_script_2","time_new_keyboard_response_1","time_open_port","time_reset_counter_prep","time_reset_counter_run","time_reset_counter_run_1","time_response_trigger_trial","time_responsescreen","time_sequence","time_target_present","time_word_trigger","title","total_correct","total_response_time","total_responses","uniform_coordinates","width","word_trig"
"250","","0","0","1200","1200","black","no","xpyriment","legacy","legacy","0","201","NA","uniform","NA","NA","NA","0","undefined","0","0","0","0","0","0","0","0","0","NA","0","0","NA","NA","0","0","NA","0","0","0","NA","NA","NA","0","0","0","NA","NA","0","0","0","0","0","1","/","Thu Oct 19 10:45:23 2023","Executes Python code","yes","m21-ba-lexicalDecision.osexp","C:\Users\ekealey\Desktop","no","mono","no","18","no","white","no","yes","1080","legacy","0","0","C:/Users/ekealey/Desktop/subject-224.csv","xpyriment","Lentiform Loewenfeld","3.3.11","0","None","NA","NA","NA","NA","space","None","1200","NA","NA","NA","NA","58954","1200","2","legacy","1024","2","48000","-16","AB_m21","224","even","CW_S","JAILER","1719","65158","62790","NA","60842","NA","NA","NA","NA","NA","63291","NA","NA","NA","62289","NA","62256","1886","65408","NA","NA","NA","63331","1719","1873","NA","NA","64531","64555","62256","63291","63311","morph21_Oliver/Morris","0","1200","1","yes","1920","13"
"400","","50","50","1057","1057","black","no","xpyriment","legacy","legacy","0","202","NA","uniform","NA","NA","NA","1","undefined","1","0","1","1","1","0","1","1","1","NA","0","1","NA","NA","0","1","NA","1","0","1","NA","NA","NA","1","0","0","NA","NA","1","1","1","1","1","2","/","Thu Oct 19 10:45:23 2023","Executes Python code","yes","m21-ba-lexicalDecision.osexp","C:\Users\ekealey\Desktop","no","mono","no","18","no","white","no","yes","1080","legacy","1","1","C:/Users/ekealey/Desktop/subject-224.csv","xpyriment","Lentiform Loewenfeld","3.3.11","0","/","NA","NA","NA","NA","space","/","914","NA","NA","NA","NA","58954","914","2","legacy","1024","2","48000","-16","AB_m21","224","even","CW_L","QUIETLY","1719","69076","66991","NA","60842","NA","NA","NA","NA","NA","67491","NA","NA","NA","66491","NA","66463","1886","69477","NA","NA","NA","67533","1719","1873","NA","NA","68448","68472","66462","67491","67512","morph21_Oliver/Morris","1","2114","2","yes","1920","36"
"200","","66.66666666666667","66.66666666666667","1008.3333333333334","1008.3333333333334","black","no","xpyriment","legacy","legacy","0","205","NA","uniform","NA","NA","NA","1","undefined","1","0","2","2","2","0","2","2","2","NA","0","2","NA","NA","0","2","NA","2","0","2","NA","NA","NA","2","0","0","NA","NA","2","2","2","2","2","3","z","Thu Oct 19 10:45:23 2023","Executes Python code","yes","m21-ba-lexicalDecision.osexp","C:\Users\ekealey\Desktop","no","mono","no","18","no","white","no","yes","1080","legacy","2","2","C:/Users/ekealey/Desktop/subject-224.csv","xpyriment","Lentiform Loewenfeld","3.3.11","0","z","NA","NA","NA","NA","space","z","911","NA","NA","NA","NA","58954","911","2","legacy","1024","2","48000","-16","AB_m21","224","even","NW_S_SIMP","NULLISH","1719","74635","71050","73131","60842","NA","NA","NA","NA","NA","71552","NA","NA","NA","70550","NA","70524","1886","74835","NA","NA","NA","71592","1719","1873","NA","NA","72504","72528","70524","71552","71572","morph21_Oliver/Morris","2","3025","3","yes","1920","23"
"250","","75","75","942.75","942.75","black","no","xpyriment","legacy","legacy","0","207","NA","uniform","NA","NA","NA","1","undefined","1","0","3","3","3","0","3","3","3","NA","0","3","NA","NA","0","3","NA","3","0","3","NA","NA","NA","3","0","0","NA","NA","3","3","3","3","3","4","/","Thu Oct 19 10:45:23 2023","Executes Python code","yes","m21-ba-lexicalDecision.osexp","C:\Users\ekealey\Desktop","no","mono","no","18","no","white","no","yes","1080","legacy","3","3","C:/Users/ekealey/Desktop/subject-224.csv","xpyriment","Lentiform Loewenfeld","3.3.11","0","/","NA","NA","NA","NA","space","/","746","NA","NA","NA","NA","58954","746","2","legacy","1024","2","48000","-16","AB_m21","224","even","FILL_W","SOUGHT","1719","78339","76424","73131","60842","NA","NA","NA","NA","NA","76925","NA","NA","NA","75924","NA","75898","1886","78589","NA","NA","NA","76966","1719","1873","NA","NA","77713","77736","75898","76925","76946","morph21_Oliver/Morris","3","3771","4","yes","1920","40"
"200","","80","80","978.2","978.2","black","no","xpyriment","legacy","legacy","0","205","NA","uniform","NA","NA","NA","1","undefined","1","0","4","4","4","0","4","4","4","NA","0","4","NA","NA","0","4","NA","4","0","4","NA","NA","NA","4","0","0","NA","NA","4","4","4","4","4","5","z","Thu Oct 19 10:45:23 2023","Executes Python code","yes","m21-ba-lexicalDecision.osexp","C:\Users\ekealey\Desktop","no","mono","no","18","no","white","no","yes","1080","legacy","4","4","C:/Users/ekealey/Desktop/subject-224.csv","xpyriment","Lentiform Loewenfeld","3.3.11","0","z","NA","NA","NA","NA","space","z","1120","NA","NA","NA","NA","58954","1120","2","legacy","1024","2","48000","-16","AB_m21","224","even","NW_S_SIMP","THRILLANCE","1719","82435","80144","73131","60842","NA","NA","NA","NA","NA","80647","NA","NA","NA","79644","NA","79617","1886","82635","NA","NA","NA","80687","1719","1873","NA","NA","81808","81832","79617","80647","80667","morph21_Oliver/Morris","4","4891","5","yes","1920","22"
"350","","83.33333333333333","83.33333333333333","916.8333333333334","916.8333333333334","black","no","xpyriment","legacy","legacy","0","207","NA","uniform","NA","NA","NA","1","undefined","1","0","5","5","5","0","5","5","5","NA","0","5","NA","NA","0","5","NA","5","0","5","NA","NA","NA","5","0","0","NA","NA","5","5","5","5","5","6","/","Thu Oct 19 10:45:23 2023","Executes Python code","yes","m21-ba-lexicalDecision.osexp","C:\Users\ekealey\Desktop","no","mono","no","18","no","white","no","yes","1080","legacy","5","5","C:/Users/ekealey/Desktop/subject-224.csv","xpyriment","Lentiform Loewenfeld","3.3.11","0","/","NA","NA","NA","NA","space","/","610","NA","NA","NA","NA","58954","610","2","legacy","1024","2","48000","-16","AB_m21","224","even","FILL_W","WEIRD","1719","87475","84192","85971","60842","NA","NA","NA","NA","NA","84692","NA","NA","NA","83691","NA","83663","1886","87825","NA","NA","NA","84733","1719","1873","NA","NA","85344","85368","83663","84692","84713","morph21_Oliver/Morris","5","5501","6","yes","1920","2"
"400","","85.71428571428571","85.71428571428571","888.7142857142857","888.7142857142857","black","no","xpyriment","legacy","legacy","0","204","NA","uniform","NA","NA","NA","1","undefined","1","0","6","6","6","0","6","6","6","NA","0","6","NA","NA","0","6","NA","6","0","6","NA","NA","NA","6","0","0","NA","NA","6","6","6","6","6","7","z","Thu Oct 19 10:45:23 2023","Executes Python code","yes","m21-ba-lexicalDecision.osexp","C:\Users\ekealey\Desktop","no","mono","no","18","no","white","no","yes","1080","legacy","6","6","C:/Users/ekealey/Desktop/subject-224.csv","xpyriment","Lentiform Loewenfeld","3.3.11","0","z","NA","NA","NA","NA","space","z","720","NA","NA","NA","NA","58954","720","2","legacy","1024","2","48000","-16","AB_m21","224","even","NW_L_COMP","FLITENGE","1719","91278","89388","85971","60842","NA","NA","NA","NA","NA","89888","NA","NA","NA","88887","NA","88857","1886","91678","NA","NA","NA","89928","1719","1873","NA","NA","90648","90672","88857","89888","89908","morph21_Oliver/Morris","6","6221","7","yes","1920","3"
"200","","87.5","87.5","878.875","878.875","black","no","xpyriment","legacy","legacy","0","204","NA","uniform","NA","NA","NA","1","undefined","1","0","7","7","7","0","7","7","7","NA","0","7","NA","NA","0","7","NA","7","0","7","NA","NA","NA","7","0","0","NA","NA","7","7","7","7","7","8","z","Thu Oct 19 10:45:23 2023","Executes Python code","yes","m21-ba-lexicalDecision.osexp","C:\Users\ekealey\Desktop","no","mono","no","18","no","white","no","yes","1080","legacy","7","7","C:/Users/ekealey/Desktop/subject-224.csv","xpyriment","Lentiform Loewenfeld","3.3.11","0","z","NA","NA","NA","NA","space","z","810","NA","NA","NA","NA","58954","810","2","legacy","1024","2","48000","-16","AB_m21","224","even","NW_L_COMP","GASFIL","1719","95221","93241","85971","60842","NA","NA","NA","NA","NA","93742","NA","NA","NA","92741","NA","92711","1886","95421","NA","NA","NA","93782","1719","1873","NA","NA","94592","94618","92711","93742","93762","morph21_Oliver/Morris","7","7031","8","yes","1920","6"
"300","","88.88888888888889","88.88888888888889","846.2222222222222","846.2222222222222","black","no","xpyriment","legacy","legacy","0","201","NA","uniform","NA","NA","NA","1","undefined","1","0","8","8","8","0","8","8","8","NA","0","8","NA","NA","0","8","NA","8","0","8","NA","NA","NA","8","0","0","NA","NA","8","8","8","8","8","9","/","Thu Oct 19 10:45:23 2023","Executes Python code","yes","m21-ba-lexicalDecision.osexp","C:\Users\ekealey\Desktop","no","mono","no","18","no","white","no","yes","1080","legacy","8","8","C:/Users/ekealey/Desktop/subject-224.csv","xpyriment","Lentiform Loewenfeld","3.3.11","0","/","NA","NA","NA","NA","space","/","585","NA","NA","NA","NA","58954","585","2","legacy","1024","2","48000","-16","AB_m21","224","even","CW_S","MAGICAL","1719","100220","96962","98717","60842","NA","NA","NA","NA","NA","97462","NA","NA","NA","96462","NA","96431","1886","100520","NA","NA","NA","97502","1719","1873","NA","NA","98088","98112","96431","97462","97482","morph21_Oliver/Morris","8","7616","9","yes","1920","4"
"250","","90","90","827.3","827.3","black","no","xpyriment","legacy","legacy","0","201","NA","uniform","NA","NA","NA","1","undefined","1","0","9","9","9","0","9","9","9","NA","0","9","NA","NA","0","9","NA","9","0","9","NA","NA","NA","9","0","0","NA","NA","9","9","9","9","9","10","/","Thu Oct 19 10:45:23 2023","Executes Python code","yes","m21-ba-lexicalDecision.osexp","C:\Users\ekealey\Desktop","no","mono","no","18","no","white","no","yes","1080","legacy","9","9","C:/Users/ekealey/Desktop/subject-224.csv","xpyriment","Lentiform Loewenfeld","3.3.11","0","/","NA","NA","NA","NA","space","/","657","NA","NA","NA","NA","58954","657","2","legacy","1024","2","48000","-16","AB_m21","224","even","CW_S","NOTICEABLE","1719","103923","102097","98717","60842","NA","NA","NA","NA","NA","102597","NA","NA","NA","101597","NA","101566","1886","104174","NA","NA","NA","102638","1719","1873","NA","NA","103296","103320","101566","102597","102618","morph21_Oliver/Morris","9","8273","10","yes","1920","3"
"300","","90.9090909090909","90.9090909090909","817","817","black","no","xpyriment","legacy","legacy","0","206","NA","uniform","NA","NA","NA","1","undefined","1","0","10","10","10","0","10","10","10","NA","0","10","NA","NA","0","10","NA","10","0","10","NA","NA","NA","10","0","0","NA","NA","10","10","10","10","10","11","z","Thu Oct 19 10:45:23 2023","Executes Python code","yes","m21-ba-lexicalDecision.osexp","C:\Users\ekealey\Desktop","no","mono","no","18","no","white","no","yes","1080","legacy","10","10","C:/Users/ekealey/Desktop/subject-224.csv","xpyriment","Lentiform Loewenfeld","3.3.11","0","z","NA","NA","NA","NA","space","z","714","NA","NA","NA","NA","58954","714","2","legacy","1024","2","48000","-16","AB_m21","224","even","NW_L_SIMP","BEGENCE","1719","107603","105720","98717","60842","NA","NA","NA","NA","NA","106222","NA","NA","NA","105220","NA","105193","1886","107903","NA","NA","NA","106262","1719","1873","NA","NA","106977","107000","105193","106222","106242","morph21_Oliver/Morris","10","8987","11","yes","1920","4"
"200","","91.66666666666667","91.66666666666667","812.4166666666666","812.4166666666666","black","no","xpyriment","legacy","legacy","0","208","NA","uniform","NA","NA","NA","1","undefined","1","0","11","11","11","0","11","11","11","NA","0","11","NA","NA","0","11","NA","11","0","11","NA","NA","NA","11","0","0","NA","NA","11","11","11","11","11","12","z","Thu Oct 19 10:45:23 2023","Executes Python code","yes","m21-ba-lexicalDecision.osexp","C:\Users\ekealey\Desktop","no","mono","no","18","no","white","no","yes","1080","legacy","11","11","C:/Users/ekealey/Desktop/subject-224.csv","xpyriment","Lentiform Loewenfeld","3.3.11","0","z","NA","NA","NA","NA","space","z","762","NA","NA","NA","NA","58954","762","2","legacy","1024","2","48000","-16","AB_m21","224","even","FILL_NW","BROUPS","1719","112897","109464","111394","60842","NA","NA","NA","NA","NA","109964","NA","NA","NA","108964","NA","108935","1886","113097","NA","NA","NA","110005","1719","1873","NA","NA","110768","110792","108935","109964","109985","morph21_Oliver/Morris","11","9749","12","yes","1920","4"
"350","","92.3076923076923","92.3076923076923","804.6923076923077","804.6923076923077","black","no","xpyriment","legacy","legacy","0","206","NA","uniform","NA","NA","NA","1","undefined","1","0","12","12","12","0","12","12","12","NA","0","12","NA","NA","0","12","NA","12","0","12","NA","NA","NA","12","0","0","NA","NA","12","12","12","12","12","13","z","Thu Oct 19 10:45:23 2023","Executes Python code","yes","m21-ba-lexicalDecision.osexp","C:\Users\ekealey\Desktop","no","mono","no","18","no","white","no","yes","1080","legacy","12","12","C:/Users/ekealey/Desktop/subject-224.csv","xpyriment","Lentiform Loewenfeld","3.3.11","0","z","NA","NA","NA","NA","space","z","712","NA","NA","NA","NA","58954","712","2","legacy","1024","2","48000","-16","AB_m21","224","even","NW_L_SIMP","PICKENCE","1719","116549","114666","111394","60842","NA","NA","NA","NA","NA","115167","NA","NA","NA","114165","NA","114131","1886","116899","NA","NA","NA","115208","1719","1873","NA","NA","115921","115944","114131","115167","115188","morph21_Oliver/Morris","12","10461","13","yes","1920","5"
"300","","92.85714285714286","92.85714285714286","792.6428571428571","792.6428571428571","black","no","xpyriment","legacy","legacy","0","207","NA","uniform","NA","NA","NA","1","undefined","1","0","13","13","13","0","13","13","13","NA","0","13","NA","NA","0","13","NA","13","0","13","NA","NA","NA","13","0","0","NA","NA","13","13","13","13","13","14","/","Thu Oct 19 10:45:23 2023","Executes Python code","yes","m21-ba-lexicalDecision.osexp","C:\Users\ekealey\Desktop","no","mono","no","18","no","white","no","yes","1080","legacy","13","13","C:/Users/ekealey/Desktop/subject-224.csv","xpyriment","Lentiform Loewenfeld","3.3.11","0","/","NA","NA","NA","NA","space","/","636","NA","NA","NA","NA","58954","636","2","legacy","1024","2","48000","-16","AB_m21","224","even","FILL_W","IRON","1719","120268","118464","111394","60842","NA","NA","NA","NA","NA","118964","NA","NA","NA","117964","NA","117935","1886","120568","NA","NA","NA","119004","1719","1873","NA","NA","119640","119664","117935","118964","118984","morph21_Oliver/Morris","13","11097","14","yes","1920","33"
"250","","93.33333333333333","93.33333333333333","784.6","784.6","black","no","xpyriment","legacy","legacy","0","201","NA","uniform","NA","NA","NA","1","undefined","1","0","14","14","14","0","14","14","14","NA","0","14","NA","NA","0","14","NA","14","0","14","NA","NA","NA","14","0","0","NA","NA","14","14","14","14","14","15","/","Thu Oct 19 10:45:23 2023","Executes Python code","yes","m21-ba-lexicalDecision.osexp","C:\Users\ekealey\Desktop","no","mono","no","18","no","white","no","yes","1080","legacy","14","14","C:/Users/ekealey/Desktop/subject-224.csv","xpyriment","Lentiform Loewenfeld","3.3.11","0","/","NA","NA","NA","NA","space","/","672","NA","NA","NA","NA","58954","672","2","legacy","1024","2","48000","-16","AB_m21","224","even","CW_S","AWARENESS","1719","125476","122130","123971","60842","NA","NA","NA","NA","NA","122630","NA","NA","NA","121630","NA","121601","1886","125726","NA","NA","NA","122671","1719","1873","NA","NA","123344","123368","121601","122630","122651","morph21_Oliver/Morris","14","11769","15","yes","1920","44"
"200","","93.75","93.75","773.4375","773.4375","black","no","xpyriment","legacy","legacy","0","207","NA","uniform","NA","NA","NA","1","undefined","1","0","15","15","15","0","15","15","15","NA","0","15","NA","NA","0","15","NA","15","0","15","NA","NA","NA","15","0","0","NA","NA","15","15","15","15","15","16","/","Thu Oct 19 10:45:23 2023","Executes Python code","yes","m21-ba-lexicalDecision.osexp","C:\Users\ekealey\Desktop","no","mono","no","18","no","white","no","yes","1080","legacy","15","15","C:/Users/ekealey/Desktop/subject-224.csv","xpyriment","Lentiform Loewenfeld","3.3.11","0","/","NA","NA","NA","NA","space","/","606","NA","NA","NA","NA","58954","606","2","legacy","1024","2","48000","-16","AB_m21","224","even","FILL_W","SAVE","1719","129053","127276","123971","60842","NA","NA","NA","NA","NA","127776","NA","NA","NA","126776","NA","126746","1886","129253","NA","NA","NA","127817","1719","1873","NA","NA","128424","128448","126746","127776","127797","morph21_Oliver/Morris","15","12375","16","yes","1920","46"
"300","","94.11764705882354","94.11764705882354","768.5294117647059","768.5294117647059","black","no","xpyriment","legacy","legacy","0","208","NA","uniform","NA","NA","NA","1","undefined","1","0","16","16","16","0","16","16","16","NA","0","16","NA","NA","0","16","NA","16","0","16","NA","NA","NA","16","0","0","NA","NA","16","16","16","16","16","17","z","Thu Oct 19 10:45:23 2023","Executes Python code","yes","m21-ba-lexicalDecision.osexp","C:\Users\ekealey\Desktop","no","mono","no","18","no","white","no","yes","1080","legacy","16","16","C:/Users/ekealey/Desktop/subject-224.csv","xpyriment","Lentiform Loewenfeld","3.3.11","0","z","NA","NA","NA","NA","space","z","690","NA","NA","NA","NA","58954","690","2","legacy","1024","2","48000","-16","AB_m21","224","even","FILL_NW","VOOFS","1719","132686","130824","123971","60842","NA","NA","NA","NA","NA","131325","NA","NA","NA","130324","NA","130297","1886","132986","NA","NA","NA","131366","1719","1873","NA","NA","132056","132081","130297","131325","131346","morph21_Oliver/Morris","16","13065","17","yes","1920","48"
"250","","94.44444444444444","94.44444444444444","756.6111111111111","756.6111111111111","black","no","xpyriment","legacy","legacy","0","202","NA","uniform","NA","NA","NA","1","undefined","1","0","17","17","17","0","17","17","17","NA","0","17","NA","NA","0","17","NA","17","0","17","NA","NA","NA","17","0","0","NA","NA","17","17","17","17","17","18","/","Thu Oct 19 10:45:23 2023","Executes Python code","yes","m21-ba-lexicalDecision.osexp","C:\Users\ekealey\Desktop","no","mono","no","18","no","white","no","yes","1080","legacy","17","17","C:/Users/ekealey/Desktop/subject-224.csv","xpyriment","Lentiform Loewenfeld","3.3.11","0","/","NA","NA","NA","NA","space","/","554","NA","NA","NA","NA","58954","554","2","legacy","1024","2","48000","-16","AB_m21","224","even","CW_L","PUSHER","1719","137795","134570","136292","60842","NA","NA","NA","NA","NA","135070","NA","NA","NA","134069","NA","134039","1886","138045","NA","NA","NA","135110","1719","1873","NA","NA","135664","135688","134039","135070","135090","morph21_Oliver/Morris","17","13619","18","yes","1920","13"
"300","","94.73684210526316","94.73684210526316","751.421052631579","751.421052631579","black","no","xpyriment","legacy","legacy","0","208","NA","uniform","NA","NA","NA","1","undefined","1","0","18","18","18","0","18","18","18","NA","0","18","NA","NA","0","18","NA","18","0","18","NA","NA","NA","18","0","0","NA","NA","18","18","18","18","18","19","z","Thu Oct 19 10:45:23 2023","Executes Python code","yes","m21-ba-lexicalDecision.osexp","C:\Users\ekealey\Desktop","no","mono","no","18","no","white","no","yes","1080","legacy","18","18","C:/Users/ekealey/Desktop/subject-224.csv","xpyriment","Lentiform Loewenfeld","3.3.11","0","z","NA","NA","NA","NA","space","z","658","NA","NA","NA","NA","58954","658","2","legacy","1024","2","48000","-16","AB_m21","224","even","FILL_NW","DULKS","1719","141492","139666","136292","60842","NA","NA","NA","NA","NA","140166","NA","NA","NA","139166","NA","139138","1886","141792","NA","NA","NA","140206","1719","1873","NA","NA","140864","140889","139138","140166","140186","morph21_Oliver/Morris","18","14277","19","yes","1920","18"
"350","","95","95","737.85","737.85","black","no","xpyriment","legacy","legacy","0","207","NA","uniform","NA","NA","NA","1","undefined","1","0","19","19","19","0","19","19","19","NA","0","19","NA","NA","0","19","NA","19","0","19","NA","NA","NA","19","0","0","NA","NA","19","19","19","19","19","20","/","Thu Oct 19 10:45:23 2023","Executes Python code","yes","m21-ba-lexicalDecision.osexp","C:\Users\ekealey\Desktop","no","mono","no","18","no","white","no","yes","1080","legacy","19","19","C:/Users/ekealey/Desktop/subject-224.csv","xpyriment","Lentiform Loewenfeld","3.3.11","0","/","NA","NA","NA","NA","space","/","480","NA","NA","NA","NA","58954","480","2","legacy","1024","2","48000","-16","AB_m21","224","even","FILL_W","BRISK","1719","145013","143362","136292","60842","NA","NA","NA","NA","NA","143862","NA","NA","NA","142862","NA","142833","1886","145363","NA","NA","NA","143904","1719","1873","NA","NA","144384","144408","142833","143862","143883","morph21_Oliver/Morris","19","14757","20","yes","1920","8"
"400","","95.23809523809524","95.23809523809524","730.3333333333334","730.3333333333334","black","no","xpyriment","legacy","legacy","0","207","NA","uniform","NA","NA","NA","1","undefined","1","0","20","20","20","0","20","20","20","NA","0","20","NA","NA","0","20","NA","20","0","20","NA","NA","NA","20","0","0","NA","NA","20","20","20","20","20","21","/","Thu Oct 19 10:45:23 2023","Executes Python code","yes","m21-ba-lexicalDecision.osexp","C:\Users\ekealey\Desktop","no","mono","no","18","no","white","no","yes","1080","legacy","20","20","C:/Users/ekealey/Desktop/subject-224.csv","xpyriment","Lentiform Loewenfeld","3.3.11","0","/","NA","NA","NA","NA","space","/","580","NA","NA","NA","NA","58954","580","2","legacy","1024","2","48000","-16","AB_m21","224","even","FILL_W","DRUNK","1719","150179","146927","148675","60842","NA","NA","NA","NA","NA","147427","NA","NA","NA","146425","NA","146399","1886","150579","NA","NA","NA","147468","1719","1873","NA","NA","148049","148072","146399","147427","147448","morph21_Oliver/Morris","20","15337","21","yes","1920","19"
"350","","95.45454545454545","95.45454545454545","726.4090909090909","726.4090909090909","black","no","xpyriment","legacy","legacy","0","208","NA","uniform","NA","NA","NA","1","undefined","1","0","21","21","21","0","21","21","21","NA","0","21","NA","NA","0","21","NA","21","0","21","NA","NA","NA","21","0","0","NA","NA","21","21","21","21","21","22","z","Thu Oct 19 10:45:23 2023","Executes Python code","yes","m21-ba-lexicalDecision.osexp","C:\Users\ekealey\Desktop","no","mono","no","18","no","white","no","yes","1080","legacy","21","21","C:/Users/ekealey/Desktop/subject-224.csv","xpyriment","Lentiform Loewenfeld","3.3.11","0","z","NA","NA","NA","NA","space","z","644","NA","NA","NA","NA","58954","644","2","legacy","1024","2","48000","-16","AB_m21","224","even","FILL_NW","JADS","1719","153962","152150","148675","60842","NA","NA","NA","NA","NA","152651","NA","NA","NA","151649","NA","151621","1886","154312","NA","NA","NA","152691","1719","1873","NA","NA","153336","153359","151620","152651","152671","morph21_Oliver/Morris","21","15981","22","yes","1920","31"
"250","","95.65217391304348","95.65217391304348","736.5652173913044","736.5652173913044","black","no","xpyriment","legacy","legacy","0","205","NA","uniform","NA","NA","NA","1","undefined","1","0","22","22","22","0","22","22","22","NA","0","22","NA","NA","0","22","NA","22","0","22","NA","NA","NA","22","0","0","NA","NA","22","22","22","22","22","23","z","Thu Oct 19 10:45:23 2023","Executes Python code","yes","m21-ba-lexicalDecision.osexp","C:\Users\ekealey\Desktop","no","mono","no","18","no","white","no","yes","1080","legacy","22","22","C:/Users/ekealey/Desktop/subject-224.csv","xpyriment","Lentiform Loewenfeld","3.3.11","0","z","NA","NA","NA","NA","space","z","960","NA","NA","NA","NA","58954","960","2","legacy","1024","2","48000","-16","AB_m21","224","even","NW_S_SIMP","ZOOMFUL","1719","157994","155866","148675","60842","NA","NA","NA","NA","NA","156366","NA","NA","NA","155366","NA","155336","1886","158244","NA","NA","NA","156407","1719","1873","NA","NA","157368","157391","155336","156366","156387","morph21_Oliver/Morris","22","16941","23","yes","1920","19"
"300","","95.83333333333333","95.83333333333333","734.5","734.5","black","no","xpyriment","legacy","legacy","0","206","NA","uniform","NA","NA","NA","1","undefined","1","0","23","23","23","0","23","23","23","NA","0","23","NA","NA","0","23","NA","23","0","23","NA","NA","NA","23","0","0","NA","NA","23","23","23","23","23","24","z","Thu Oct 19 10:45:23 2023","Executes Python code","yes","m21-ba-lexicalDecision.osexp","C:\Users\ekealey\Desktop","no","mono","no","18","no","white","no","yes","1080","legacy","23","23","C:/Users/ekealey/Desktop/subject-224.csv","xpyriment","Lentiform Loewenfeld","3.3.11","0","z","NA","NA","NA","NA","space","z","687","NA","NA","NA","NA","58954","687","2","legacy","1024","2","48000","-16","AB_m21","224","even","NW_L_SIMP","ELBOWISM","1719","163212","159850","161708","60842","NA","NA","NA","NA","NA","160352","NA","NA","NA","159349","NA","159323","1886","163512","NA","NA","NA","160392","1719","1873","NA","NA","161080","161105","159323","160351","160372","morph21_Oliver/Morris","23","17628","24","yes","1920","10"
"200","","96","96","730.96","730.96","black","no","xpyriment","legacy","legacy","0","208","NA","uniform","NA","NA","NA","1","undefined","1","0","24","24","24","0","24","24","24","NA","0","24","NA","NA","0","24","NA","24","0","24","NA","NA","NA","24","0","0","NA","NA","24","24","24","24","24","25","z","Thu Oct 19 10:45:23 2023","Executes Python code","yes","m21-ba-lexicalDecision.osexp","C:\Users\ekealey\Desktop","no","mono","no","18","no","white","no","yes","1080","legacy","24","24","C:/Users/ekealey/Desktop/subject-224.csv","xpyriment","Lentiform Loewenfeld","3.3.11","0","z","NA","NA","NA","NA","space","z","646","NA","NA","NA","NA","58954","646","2","legacy","1024","2","48000","-16","AB_m21","224","even","FILL_NW","BLAYS","1719","166907","165093","161708","60842","NA","NA","NA","NA","NA","165593","NA","NA","NA","164593","NA","164560","1886","167107","NA","NA","NA","165634","1719","1873","NA","NA","166281","166304","164560","165593","165614","morph21_Oliver/Morris","24","18274","25","yes","1920","8"
"200","","96.15384615384616","96.15384615384616","723.8076923076923","723.8076923076923","black","no","xpyriment","legacy","legacy","0","207","NA","uniform","NA","NA","NA","1","undefined","1","0","25","25","25","0","25","25","25","NA","0","25","NA","NA","0","25","NA","25","0","25","NA","NA","NA","25","0","0","NA","NA","25","25","25","25","25","26","/","Thu Oct 19 10:45:23 2023","Executes Python code","yes","m21-ba-lexicalDecision.osexp","C:\Users\ekealey\Desktop","no","mono","no","18","no","white","no","yes","1080","legacy","25","25","C:/Users/ekealey/Desktop/subject-224.csv","xpyriment","Lentiform Loewenfeld","3.3.11","0","/","NA","NA","NA","NA","space","/","545","NA","NA","NA","NA","58954","545","2","legacy","1024","2","48000","-16","AB_m21","224","even","FILL_W","FLOAT","1719","170395","168680","161708","60842","NA","NA","NA","NA","NA","169181","NA","NA","NA","168178","NA","168154","1886","170595","NA","NA","NA","169222","1719","1873","NA","NA","169768","169792","168154","169181","169202","morph21_Oliver/Morris","25","18819","26","yes","1920","30"
"200","","96.29629629629629","96.29629629629629","726.6666666666666","726.6666666666666","black","no","xpyriment","legacy","legacy","0","208","NA","uniform","NA","NA","NA","1","undefined","1","0","26","26","26","0","26","26","26","NA","0","26","NA","NA","0","26","NA","26","0","26","NA","NA","NA","26","0","0","NA","NA","26","26","26","26","26","27","z","Thu Oct 19 10:45:23 2023","Executes Python code","yes","m21-ba-lexicalDecision.osexp","C:\Users\ekealey\Desktop","no","mono","no","18","no","white","no","yes","1080","legacy","26","26","C:/Users/ekealey/Desktop/subject-224.csv","xpyriment","Lentiform Loewenfeld","3.3.11","0","z","NA","NA","NA","NA","space","z","801","NA","NA","NA","NA","58954","801","2","legacy","1024","2","48000","-16","AB_m21","224","even","FILL_NW","SMADE","1719","175616","172139","174109","60842","NA","NA","NA","NA","NA","172639","NA","NA","NA","171639","NA","171609","1886","175816","NA","NA","NA","172679","1719","1873","NA","NA","173480","173504","171609","172639","172659","morph21_Oliver/Morris","26","19620","27","yes","1920","42"
"400","","96.42857142857143","96.42857142857143","729.1428571428571","729.1428571428571","black","no","xpyriment","legacy","legacy","0","208","NA","uniform","NA","NA","NA","1","undefined","1","0","27","27","27","0","27","27","27","NA","0","27","NA","NA","0","27","NA","27","0","27","NA","NA","NA","27","0","0","NA","NA","27","27","27","27","27","28","z","Thu Oct 19 10:45:23 2023","Executes Python code","yes","m21-ba-lexicalDecision.osexp","C:\Users\ekealey\Desktop","no","mono","no","18","no","white","no","yes","1080","legacy","27","27","C:/Users/ekealey/Desktop/subject-224.csv","xpyriment","Lentiform Loewenfeld","3.3.11","0","z","NA","NA","NA","NA","space","z","796","NA","NA","NA","NA","58954","796","2","legacy","1024","2","48000","-16","AB_m21","224","even","FILL_NW","DROES","1719","179356","177391","174109","60842","NA","NA","NA","NA","NA","177891","NA","NA","NA","176891","NA","176864","1886","179757","NA","NA","NA","177932","1719","1873","NA","NA","178728","178753","176864","177891","177912","morph21_Oliver/Morris","27","20416","28","yes","1920","17"
"400","","96.55172413793103","96.55172413793103","720.8965517241379","720.8965517241379","black","no","xpyriment","legacy","legacy","0","207","NA","uniform","NA","NA","NA","1","undefined","1","0","28","28","28","0","28","28","28","NA","0","28","NA","NA","0","28","NA","28","0","28","NA","NA","NA","28","0","0","NA","NA","28","28","28","28","28","29","/","Thu Oct 19 10:45:23 2023","Executes Python code","yes","m21-ba-lexicalDecision.osexp","C:\Users\ekealey\Desktop","no","mono","no","18","no","white","no","yes","1080","legacy","28","28","C:/Users/ekealey/Desktop/subject-224.csv","xpyriment","Lentiform Loewenfeld","3.3.11","0","/","NA","NA","NA","NA","space","/","490","NA","NA","NA","NA","58954","490","2","legacy","1024","2","48000","-16","AB_m21","224","even","FILL_W","CHIP","1719","182995","181337","174109","60842","NA","NA","NA","NA","NA","181837","NA","NA","NA","180836","NA","180810","1886","183395","NA","NA","NA","181877","1719","1873","NA","NA","182368","182391","180810","181837","181857","morph21_Oliver/Morris","28","20906","29","yes","1920","11"
"350","","96.66666666666667","96.66666666666667","716.1666666666666","716.1666666666666","black","no","xpyriment","legacy","legacy","0","208","NA","uniform","NA","NA","NA","1","undefined","1","0","29","29","29","0","29","29","29","NA","0","29","NA","NA","0","29","NA","29","0","29","NA","NA","NA","29","0","0","NA","NA","29","29","29","29","29","30","z","Thu Oct 19 10:45:23 2023","Executes Python code","yes","m21-ba-lexicalDecision.osexp","C:\Users\ekealey\Desktop","no","mono","no","18","no","white","no","yes","1080","legacy","29","29","C:/Users/ekealey/Desktop/subject-224.csv","xpyriment","Lentiform Loewenfeld","3.3.11","0","z","NA","NA","NA","NA","space","z","579","NA","NA","NA","NA","58954","579","2","legacy","1024","2","48000","-16","AB_m21","224","even","FILL_NW","DELP","1719","188203","184952","186699","60842","NA","NA","NA","NA","NA","185452","NA","NA","NA","184452","NA","184425","1886","188553","NA","NA","NA","185493","1719","1873","NA","NA","186072","186096","184425","185452","185473","morph21_Oliver/Morris","29","21485","30","yes","1920","14"
"250","","96.7741935483871","96.7741935483871","712.6451612903226","712.6451612903226","black","no","xpyriment","legacy","legacy","0","201","NA","uniform","NA","NA","NA","1","undefined","1","0","30","30","30","0","30","30","30","NA","0","30","NA","NA","0","30","NA","30","0","30","NA","NA","NA","30","0","0","NA","NA","30","30","30","30","30","31","/","Thu Oct 19 10:45:23 2023","Executes Python code","yes","m21-ba-lexicalDecision.osexp","C:\Users\ekealey\Desktop","no","mono","no","18","no","white","no","yes","1080","legacy","30","30","C:/Users/ekealey/Desktop/subject-224.csv","xpyriment","Lentiform Loewenfeld","3.3.11","0","/","NA","NA","NA","NA","space","/","607","NA","NA","NA","NA","58954","607","2","legacy","1024","2","48000","-16","AB_m21","224","even","CW_S","PLANNER","1719","191890","190114","186699","60842","NA","NA","NA","NA","NA","190615","NA","NA","NA","189613","NA","189580","1886","192140","NA","NA","NA","190656","1719","1873","NA","NA","191264","191287","189579","190615","190636","morph21_Oliver/Morris","30","22092","31","yes","1920","22"
"350","","96.875","96.875","710.09375","710.09375","black","no","xpyriment","legacy","legacy","0","202","NA","uniform","NA","NA","NA","1","undefined","1","0","31","31","31","0","31","31","31","NA","0","31","NA","NA","0","31","NA","31","0","31","NA","NA","NA","31","0","0","NA","NA","31","31","31","31","31","32","/","Thu Oct 19 10:45:23 2023","Executes Python code","yes","m21-ba-lexicalDecision.osexp","C:\Users\ekealey\Desktop","no","mono","no","18","no","white","no","yes","1080","legacy","31","31","C:/Users/ekealey/Desktop/subject-224.csv","xpyriment","Lentiform Loewenfeld","3.3.11","0","/","NA","NA","NA","NA","space","/","631","NA","NA","NA","NA","58954","631","2","legacy","1024","2","48000","-16","AB_m21","224","even","CW_L","JUMPING","1719","195518","193715","186699","60842","NA","NA","NA","NA","NA","194215","NA","NA","NA","193214","NA","193189","1886","195869","NA","NA","NA","194256","1719","1873","NA","NA","194887","194915","193189","194215","194235","morph21_Oliver/Morris","31","22723","32","yes","1920","30"
"300","","96.96969696969697","96.96969696969697","708.5454545454545","708.5454545454545","black","no","xpyriment","legacy","legacy","0","204","NA","uniform","NA","NA","NA","1","undefined","1","0","32","32","32","0","32","32","32","NA","0","32","NA","NA","0","32","NA","32","0","32","NA","NA","NA","32","0","0","NA","NA","32","32","32","32","32","33","z","Thu Oct 19 10:45:23 2023","Executes Python code","yes","m21-ba-lexicalDecision.osexp","C:\Users\ekealey\Desktop","no","mono","no","18","no","white","no","yes","1080","legacy","32","32","C:/Users/ekealey/Desktop/subject-224.csv","xpyriment","Lentiform Loewenfeld","3.3.11","0","z","NA","NA","NA","NA","space","z","659","NA","NA","NA","NA","58954","659","2","legacy","1024","2","48000","-16","AB_m21","224","even","NW_L_COMP","EMPLOYNELS","1719","200762","197431","199259","60842","NA","NA","NA","NA","NA","197931","NA","NA","NA","196931","NA","196902","1886","201062","NA","NA","NA","197972","1719","1873","NA","NA","198633","198656","196902","197931","197952","morph21_Oliver/Morris","32","23382","33","yes","1920","21"
"200","","97.05882352941177","97.05882352941177","708.5588235294117","708.5588235294117","black","no","xpyriment","legacy","legacy","0","203","NA","uniform","NA","NA","NA","1","undefined","1","0","33","33","33","0","33","33","33","NA","0","33","NA","NA","0","33","NA","33","0","33","NA","NA","NA","33","0","0","NA","NA","33","33","33","33","33","34","z","Thu Oct 19 10:45:23 2023","Executes Python code","yes","m21-ba-lexicalDecision.osexp","C:\Users\ekealey\Desktop","no","mono","no","18","no","white","no","yes","1080","legacy","33","33","C:/Users/ekealey/Desktop/subject-224.csv","xpyriment","Lentiform Loewenfeld","3.3.11","0","z","NA","NA","NA","NA","space","z","709","NA","NA","NA","NA","58954","709","2","legacy","1024","2","48000","-16","AB_m21","224","even","NW_S_COMP","ADOPTISH","1719","204507","202630","199259","60842","NA","NA","NA","NA","NA","203130","NA","NA","NA","202130","NA","202098","1886","204707","NA","NA","NA","203171","1719","1873","NA","NA","203880","203904","202098","203130","203151","morph21_Oliver/Morris","33","24091","34","yes","1920","19"
"300","","94.28571428571429","94.28571428571429","718.6857142857143","718.6857142857143","black","no","xpyriment","legacy","legacy","0","206","NA","uniform","NA","NA","NA","0","undefined","0","0","34","34","34","0","34","34","34","NA","0","34","NA","NA","0","34","NA","34","0","34","NA","NA","NA","34","0","0","NA","NA","34","34","34","34","34","35","z","Thu Oct 19 10:45:23 2023","Executes Python code","yes","m21-ba-lexicalDecision.osexp","C:\Users\ekealey\Desktop","no","mono","no","18","no","white","no","yes","1080","legacy","34","34","C:/Users/ekealey/Desktop/subject-224.csv","xpyriment","Lentiform Loewenfeld","3.3.11","0","/","NA","NA","NA","NA","space","/","1063","NA","NA","NA","NA","58954","1063","2","legacy","1024","2","48000","-16","AB_m21","224","even","NW_L_SIMP","LONGNESS","1719","208555","206321","199259","60842","NA","NA","NA","NA","NA","206822","NA","NA","NA","205819","NA","205793","1886","208855","NA","NA","NA","206864","1719","1873","NA","NA","207928","207951","205793","206822","206843","morph21_Oliver/Morris","33","25154","35","yes","1920","17"
"250","","94.44444444444444","94.44444444444444","714.5833333333334","714.5833333333334","black","no","xpyriment","legacy","legacy","0","206","NA","uniform","NA","NA","NA","1","undefined","1","0","35","35","35","0","35","35","35","NA","0","35","NA","NA","0","35","NA","35","0","35","NA","NA","NA","35","0","0","NA","NA","35","35","35","35","35","36","z","Thu Oct 19 10:45:23 2023","Executes Python code","yes","m21-ba-lexicalDecision.osexp","C:\Users\ekealey\Desktop","no","mono","no","18","no","white","no","yes","1080","legacy","35","35","C:/Users/ekealey/Desktop/subject-224.csv","xpyriment","Lentiform Loewenfeld","3.3.11","0","z","NA","NA","NA","NA","space","z","571","NA","NA","NA","NA","58954","571","2","legacy","1024","2","48000","-16","AB_m21","224","even","NW_L_SIMP"," DRESSORY","1719","213653","210407","212149","60842","NA","NA","NA","NA","NA","210907","NA","NA","NA","209906","NA","209879","1886","213903","NA","NA","NA","210948","1719","1873","NA","NA","211520","211544","209879","210907","210928","morph21_Oliver/Morris","34","25725","36","yes","1920","21"
"250","","94.5945945945946","94.5945945945946","719.3513513513514","719.3513513513514","black","no","xpyriment","legacy","legacy","0","202","NA","uniform","NA","NA","NA","1","undefined","1","0","36","36","36","0","36","36","36","NA","0","36","NA","NA","0","36","NA","36","0","36","NA","NA","NA","36","0","0","NA","NA","36","36","36","36","36","37","/","Thu Oct 19 10:45:23 2023","Executes Python code","yes","m21-ba-lexicalDecision.osexp","C:\Users\ekealey\Desktop","no","mono","no","18","no","white","no","yes","1080","legacy","36","36","C:/Users/ekealey/Desktop/subject-224.csv","xpyriment","Lentiform Loewenfeld","3.3.11","0","/","NA","NA","NA","NA","space","/","891","NA","NA","NA","NA","58954","891","2","legacy","1024","2","48000","-16","AB_m21","224","even","CW_L","STRIKER","1719","217524","215464","212149","60842","NA","NA","NA","NA","NA","215964","NA","NA","NA","214964","NA","214931","1886","217774","NA","NA","NA","216004","1719","1873","NA","NA","216896","216921","214931","215964","215984","morph21_Oliver/Morris","35","26616","37","yes","1920","17"
"400","","92.10526315789474","92.10526315789474","732","732","black","no","xpyriment","legacy","legacy","0","202","NA","uniform","NA","NA","NA","0","undefined","0","0","37","37","37","0","37","37","37","NA","0","37","NA","NA","0","37","NA","37","0","37","NA","NA","NA","37","0","0","NA","NA","37","37","37","37","37","38","/","Thu Oct 19 10:45:23 2023","Executes Python code","yes","m21-ba-lexicalDecision.osexp","C:\Users\ekealey\Desktop","no","mono","no","18","no","white","no","yes","1080","legacy","37","37","C:/Users/ekealey/Desktop/subject-224.csv","xpyriment","Lentiform Loewenfeld","3.3.11","0","None","NA","NA","NA","NA","space","None","1200","NA","NA","NA","NA","58954","1200","2","legacy","1024","2","48000","-16","AB_m21","224","even","CW_L","CLOUDLESS","1719","221702","219333","212149","60842","NA","NA","NA","NA","NA","219833","NA","NA","NA","218833","NA","218805","1886","222102","NA","NA","NA","219874","1719","1873","NA","NA","221074","221098","218805","219833","219854","morph21_Oliver/Morris","35","27816","38","yes","1920","33"
"250","","92.3076923076923","92.3076923076923","728.2307692307693","728.2307692307693","black","no","xpyriment","legacy","legacy","0","207","NA","uniform","NA","NA","NA","1","undefined","1","0","38","38","38","0","38","38","38","NA","0","38","NA","NA","0","38","NA","38","0","38","NA","NA","NA","38","0","0","NA","NA","38","38","38","38","38","39","/","Thu Oct 19 10:45:23 2023","Executes Python code","yes","m21-ba-lexicalDecision.osexp","C:\Users\ekealey\Desktop","no","mono","no","18","no","white","no","yes","1080","legacy","38","38","C:/Users/ekealey/Desktop/subject-224.csv","xpyriment","Lentiform Loewenfeld","3.3.11","0","/","NA","NA","NA","NA","space","/","585","NA","NA","NA","NA","58954","585","2","legacy","1024","2","48000","-16","AB_m21","224","even","FILL_W","COOK","1719","226938","223681","225435","60842","NA","NA","NA","NA","NA","224182","NA","NA","NA","223179","NA","223155","1886","227188","NA","NA","NA","224223","1719","1873","NA","NA","224808","224832","223155","224182","224203","morph21_Oliver/Morris","36","28401","39","yes","1920","38"
"300","","92.5","92.5","726.15","726.15","black","no","xpyriment","legacy","legacy","0","201","NA","uniform","NA","NA","NA","1","undefined","1","0","39","39","39","0","39","39","39","NA","0","39","NA","NA","0","39","NA","39","0","39","NA","NA","NA","39","0","0","NA","NA","39","39","39","39","39","40","/","Thu Oct 19 10:45:23 2023","Executes Python code","yes","m21-ba-lexicalDecision.osexp","C:\Users\ekealey\Desktop","no","mono","no","18","no","white","no","yes","1080","legacy","39","39","C:/Users/ekealey/Desktop/subject-224.csv","xpyriment","Lentiform Loewenfeld","3.3.11","0","/","NA","NA","NA","NA","space","/","645","NA","NA","NA","NA","58954","645","2","legacy","1024","2","48000","-16","AB_m21","224","even","CW_S","DETECTABLE","1719","230572","228757","225435","60842","NA","NA","NA","NA","NA","229257","NA","NA","NA","228257","NA","228226","1886","230872","NA","NA","NA","229298","1719","1873","NA","NA","229944","229968","228226","229257","229278","morph21_Oliver/Morris","37","29046","40","yes","1920","1"
"250","","92.6829268292683","92.6829268292683","724.5853658536586","724.5853658536586","black","no","xpyriment","legacy","legacy","0","207","NA","uniform","NA","NA","NA","1","undefined","1","0","40","40","40","0","40","40","40","NA","0","40","NA","NA","0","40","NA","40","0","40","NA","NA","NA","40","0","0","NA","NA","40","40","40","40","40","41","/","Thu Oct 19 10:45:23 2023","Executes Python code","yes","m21-ba-lexicalDecision.osexp","C:\Users\ekealey\Desktop","no","mono","no","18","no","white","no","yes","1080","legacy","40","40","C:/Users/ekealey/Desktop/subject-224.csv","xpyriment","Lentiform Loewenfeld","3.3.11","0","/","NA","NA","NA","NA","space","/","662","NA","NA","NA","NA","58954","662","2","legacy","1024","2","48000","-16","AB_m21","224","even","FILL_W","PREACH","1719","234275","232444","225435","60842","NA","NA","NA","NA","NA","232944","NA","NA","NA","231943","NA","231919","1886","234525","NA","NA","NA","232985","1719","1873","NA","NA","233648","233672","231919","232944","232965","morph21_Oliver/Morris","38","29708","41","yes","1920","7"
"350","","92.85714285714286","92.85714285714286","723.6904761904761","723.6904761904761","black","no","xpyriment","legacy","legacy","0","208","NA","uniform","NA","NA","NA","1","undefined","1","0","41","41","41","0","41","41","41","NA","0","41","NA","NA","0","41","NA","41","0","41","NA","NA","NA","41","0","0","NA","NA","41","41","41","41","41","42","z","Thu Oct 19 10:45:23 2023","Executes Python code","yes","m21-ba-lexicalDecision.osexp","C:\Users\ekealey\Desktop","no","mono","no","18","no","white","no","yes","1080","legacy","41","41","C:/Users/ekealey/Desktop/subject-224.csv","xpyriment","Lentiform Loewenfeld","3.3.11","0","z","NA","NA","NA","NA","space","z","687","NA","NA","NA","NA","58954","687","2","legacy","1024","2","48000","-16","AB_m21","224","even","FILL_NW","BLANTH","1719","239460","236099","237957","60842","NA","NA","NA","NA","NA","236600","NA","NA","NA","235599","NA","235572","1886","239810","NA","NA","NA","236641","1719","1873","NA","NA","237328","237353","235571","236600","236621","morph21_Oliver/Morris","39","30395","42","yes","1920","3"
"400","","93.02325581395348","93.02325581395348","727.8139534883721","727.8139534883721","black","no","xpyriment","legacy","legacy","0","205","NA","uniform","NA","NA","NA","1","undefined","1","0","42","42","42","0","42","42","42","NA","0","42","NA","NA","0","42","NA","42","0","42","NA","NA","NA","42","0","0","NA","NA","42","42","42","42","42","43","z","Thu Oct 19 10:45:23 2023","Executes Python code","yes","m21-ba-lexicalDecision.osexp","C:\Users\ekealey\Desktop","no","mono","no","18","no","white","no","yes","1080","legacy","42","42","C:/Users/ekealey/Desktop/subject-224.csv","xpyriment","Lentiform Loewenfeld","3.3.11","0","z","NA","NA","NA","NA","space","z","901","NA","NA","NA","NA","58954","901","2","legacy","1024","2","48000","-16","AB_m21","224","even","NW_S_SIMP","URNIST","1719","243445","241373","237957","60842","NA","NA","NA","NA","NA","241874","NA","NA","NA","240872","NA","240838","1886","243845","NA","NA","NA","241914","1719","1873","NA","NA","242816","242840","240838","241874","241894","morph21_Oliver/Morris","40","31296","43","yes","1920","5"
"200","","93.18181818181819","93.18181818181819","724.9772727272727","724.9772727272727","black","no","xpyriment","legacy","legacy","0","207","NA","uniform","NA","NA","NA","1","undefined","1","0","43","43","43","0","43","43","43","NA","0","43","NA","NA","0","43","NA","43","0","43","NA","NA","NA","43","0","0","NA","NA","43","43","43","43","43","44","/","Thu Oct 19 10:45:23 2023","Executes Python code","yes","m21-ba-lexicalDecision.osexp","C:\Users\ekealey\Desktop","no","mono","no","18","no","white","no","yes","1080","legacy","43","43","C:/Users/ekealey/Desktop/subject-224.csv","xpyriment","Lentiform Loewenfeld","3.3.11","0","/","NA","NA","NA","NA","space","/","603","NA","NA","NA","NA","58954","603","2","legacy","1024","2","48000","-16","AB_m21","224","even","FILL_W","BRASS","1719","247227","245455","237957","60842","NA","NA","NA","NA","NA","245955","NA","NA","NA","244954","NA","244928","1886","247427","NA","NA","NA","245996","1719","1873","NA","NA","246600","246624","244928","245955","245976","morph21_Oliver/Morris","41","31899","44","yes","1920","10"
"350","","93.33333333333333","93.33333333333333","723.4888888888889","723.4888888888889","black","no","xpyriment","legacy","legacy","0","203","NA","uniform","NA","NA","NA","1","undefined","1","0","44","44","44","0","44","44","44","NA","0","44","NA","NA","0","44","NA","44","0","44","NA","NA","NA","44","0","0","NA","NA","44","44","44","44","44","45","z","Thu Oct 19 10:45:23 2023","Executes Python code","yes","m21-ba-lexicalDecision.osexp","C:\Users\ekealey\Desktop","no","mono","no","18","no","white","no","yes","1080","legacy","44","44","C:/Users/ekealey/Desktop/subject-224.csv","xpyriment","Lentiform Loewenfeld","3.3.11","0","z","NA","NA","NA","NA","space","z","658","NA","NA","NA","NA","58954","658","2","legacy","1024","2","48000","-16","AB_m21","224","even","NW_S_COMP","WELDIG","1719","252364","249034","250860","60842","NA","NA","NA","NA","NA","249534","NA","NA","NA","248534","NA","248501","1886","252714","NA","NA","NA","249574","1719","1873","NA","NA","250232","250257","248501","249534","249554","morph21_Oliver/Morris","42","32557","45","yes","1920","21"
"200","","93.47826086956522","93.47826086956522","718.3913043478261","718.3913043478261","black","no","xpyriment","legacy","legacy","0","207","NA","uniform","NA","NA","NA","1","undefined","1","0","45","45","45","0","45","45","45","NA","0","45","NA","NA","0","45","NA","45","0","45","NA","NA","NA","45","0","0","NA","NA","45","45","45","45","45","46","/","Thu Oct 19 10:45:23 2023","Executes Python code","yes","m21-ba-lexicalDecision.osexp","C:\Users\ekealey\Desktop","no","mono","no","18","no","white","no","yes","1080","legacy","45","45","C:/Users/ekealey/Desktop/subject-224.csv","xpyriment","Lentiform Loewenfeld","3.3.11","0","/","NA","NA","NA","NA","space","/","489","NA","NA","NA","NA","58954","489","2","legacy","1024","2","48000","-16","AB_m21","224","even","FILL_W","TEST","1719","255990","254330","250860","60842","NA","NA","NA","NA","NA","254830","NA","NA","NA","253830","NA","253798","1886","256190","NA","NA","NA","254871","1719","1873","NA","NA","255360","255386","253798","254830","254851","morph21_Oliver/Morris","43","33046","46","yes","1920","47"
"200","","93.61702127659575","93.61702127659575","713.9787234042553","713.9787234042553","black","no","xpyriment","legacy","legacy","0","207","NA","uniform","NA","NA","NA","1","undefined","1","0","46","46","46","0","46","46","46","NA","0","46","NA","NA","0","46","NA","46","0","46","NA","NA","NA","46","0","0","NA","NA","46","46","46","46","46","47","/","Thu Oct 19 10:45:23 2023","Executes Python code","yes","m21-ba-lexicalDecision.osexp","C:\Users\ekealey\Desktop","no","mono","no","18","no","white","no","yes","1080","legacy","46","46","C:/Users/ekealey/Desktop/subject-224.csv","xpyriment","Lentiform Loewenfeld","3.3.11","0","/","NA","NA","NA","NA","space","/","511","NA","NA","NA","NA","58954","511","2","legacy","1024","2","48000","-16","AB_m21","224","even","FILL_W","FLESH","1719","259455","257771","250860","60842","NA","NA","NA","NA","NA","258272","NA","NA","NA","257271","NA","257242","1886","259655","NA","NA","NA","258312","1719","1873","NA","NA","258824","258851","257242","258272","258292","morph21_Oliver/Morris","44","33557","47","yes","1920","32"
"350","","93.75","93.75","716.1041666666666","716.1041666666666","black","no","xpyriment","legacy","legacy","0","206","NA","uniform","NA","NA","NA","1","undefined","1","0","47","47","47","0","47","47","47","NA","0","47","NA","NA","0","47","NA","47","0","47","NA","NA","NA","47","0","0","NA","NA","47","47","47","47","47","48","z","Thu Oct 19 10:45:23 2023","Executes Python code","yes","m21-ba-lexicalDecision.osexp","C:\Users\ekealey\Desktop","no","mono","no","18","no","white","no","yes","1080","legacy","47","47","C:/Users/ekealey/Desktop/subject-224.csv","xpyriment","Lentiform Loewenfeld","3.3.11","0","z","NA","NA","NA","NA","space","z","816","NA","NA","NA","NA","58954","816","2","legacy","1024","2","48000","-16","AB_m21","224","even","NW_L_SIMP","WIGISH","1719","264693","261203","263188","60842","NA","NA","NA","NA","NA","261703","NA","NA","NA","260702","NA","260672","1886","265043","NA","NA","NA","261743","1719","1873","NA","NA","262560","262585","260672","261703","261723","morph21_Oliver/Morris","45","34373","48","yes","1920","9"
"400","","93.87755102040816","93.87755102040816","715.4081632653061","715.4081632653061","black","no","xpyriment","legacy","legacy","0","203","NA","uniform","NA","NA","NA","1","undefined","1","0","48","48","48","0","48","48","48","NA","0","48","NA","NA","0","48","NA","48","0","48","NA","NA","NA","48","0","0","NA","NA","48","48","48","48","48","49","z","Thu Oct 19 10:45:23 2023","Executes Python code","yes","m21-ba-lexicalDecision.osexp","C:\Users\ekealey\Desktop","no","mono","no","18","no","white","no","yes","1080","legacy","48","48","C:/Users/ekealey/Desktop/subject-224.csv","xpyriment","Lentiform Loewenfeld","3.3.11","0","z","NA","NA","NA","NA","space","z","682","NA","NA","NA","NA","58954","682","2","legacy","1024","2","48000","-16","AB_m21","224","even","NW_S_COMP","ALTARIG","1719","268459","266607","263188","60842","NA","NA","NA","NA","NA","267109","NA","NA","NA","266105","NA","266073","1886","268859","NA","NA","NA","267149","1719","1873","NA","NA","267831","267856","266072","267109","267129","morph21_Oliver/Morris","46","35055","49","yes","1920","7"
"200","","94","94","712.62","712.62","black","no","xpyriment","legacy","legacy","0","201","NA","uniform","NA","NA","NA","1","undefined","1","0","49","49","49","0","49","49","49","NA","0","49","NA","NA","0","49","NA","49","0","49","NA","NA","NA","49","0","0","NA","NA","49","49","49","49","49","50","/","Thu Oct 19 10:45:23 2023","Executes Python code","yes","m21-ba-lexicalDecision.osexp","C:\Users\ekealey\Desktop","no","mono","no","18","no","white","no","yes","1080","legacy","49","49","C:/Users/ekealey/Desktop/subject-224.csv","xpyriment","Lentiform Loewenfeld","3.3.11","0","/","NA","NA","NA","NA","space","/","576","NA","NA","NA","NA","58954","576","2","legacy","1024","2","48000","-16","AB_m21","224","even","CW_S","LISTENER","1719","272189","270443","263188","60842","NA","NA","NA","NA","NA","270943","NA","NA","NA","269942","NA","269918","1886","272389","NA","NA","NA","270983","1719","1873","NA","NA","271560","271585","269918","270943","270963","morph21_Oliver/Morris","47","35631","50","yes","1920","18"
"400","","94.11764705882354","94.11764705882354","715.5490196078431","715.5490196078431","black","no","xpyriment","legacy","legacy","0","208","NA","uniform","NA","NA","NA","1","undefined","1","0","50","50","50","0","50","50","50","NA","0","50","NA","NA","0","50","NA","50","0","50","NA","NA","NA","50","0","0","NA","NA","50","50","50","50","50","51","z","Thu Oct 19 10:45:23 2023","Executes Python code","yes","m21-ba-lexicalDecision.osexp","C:\Users\ekealey\Desktop","no","mono","no","18","no","white","no","yes","1080","legacy","50","50","C:/Users/ekealey/Desktop/subject-224.csv","xpyriment","Lentiform Loewenfeld","3.3.11","0","z","NA","NA","NA","NA","space","z","862","NA","NA","NA","NA","58954","862","2","legacy","1024","2","48000","-16","AB_m21","224","even","FILL_NW","HEND","1719","277478","273939","275972","60842","NA","NA","NA","NA","NA","274440","NA","NA","NA","273438","NA","273408","1886","277878","NA","NA","NA","274481","1719","1873","NA","NA","275343","275368","273408","274440","274461","morph21_Oliver/Morris","48","36493","51","yes","1920","28"
"300","","94.23076923076923","94.23076923076923","723.25","723.25","black","no","xpyriment","legacy","legacy","0","206","NA","uniform","NA","NA","NA","1","undefined","1","0","51","51","51","0","51","51","51","NA","0","51","NA","NA","0","51","NA","51","0","51","NA","NA","NA","51","0","0","NA","NA","51","51","51","51","51","52","z","Thu Oct 19 10:45:23 2023","Executes Python code","yes","m21-ba-lexicalDecision.osexp","C:\Users\ekealey\Desktop","no","mono","no","18","no","white","no","yes","1080","legacy","51","51","C:/Users/ekealey/Desktop/subject-224.csv","xpyriment","Lentiform Loewenfeld","3.3.11","0","z","NA","NA","NA","NA","space","z","1116","NA","NA","NA","NA","58954","1116","2","legacy","1024","2","48000","-16","AB_m21","224","even","NW_L_SIMP","BANDARY","1719","281749","279462","275972","60842","NA","NA","NA","NA","NA","279963","NA","NA","NA","278962","NA","278927","1886","282049","NA","NA","NA","280003","1719","1873","NA","NA","281120","281145","278927","279963","279983","morph21_Oliver/Morris","49","37609","52","yes","1920","3"
"300","","94.33962264150944","94.33962264150944","719.3018867924528","719.3018867924528","black","no","xpyriment","legacy","legacy","0","207","NA","uniform","NA","NA","NA","1","undefined","1","0","52","52","52","0","52","52","52","NA","0","52","NA","NA","0","52","NA","52","0","52","NA","NA","NA","52","0","0","NA","NA","52","52","52","52","52","53","/","Thu Oct 19 10:45:23 2023","Executes Python code","yes","m21-ba-lexicalDecision.osexp","C:\Users\ekealey\Desktop","no","mono","no","18","no","white","no","yes","1080","legacy","52","52","C:/Users/ekealey/Desktop/subject-224.csv","xpyriment","Lentiform Loewenfeld","3.3.11","0","/","NA","NA","NA","NA","space","/","514","NA","NA","NA","NA","58954","514","2","legacy","1024","2","48000","-16","AB_m21","224","even","FILL_W","BALD","1719","285298","283616","275972","60842","NA","NA","NA","NA","NA","284117","NA","NA","NA","283115","NA","283088","1886","285598","NA","NA","NA","284157","1719","1873","NA","NA","284672","284695","283088","284116","284137","morph21_Oliver/Morris","50","38123","53","yes","1920","3"
"350","","94.44444444444444","94.44444444444444","715.1481481481482","715.1481481481482","black","no","xpyriment","legacy","legacy","0","207","NA","uniform","NA","NA","NA","1","undefined","1","0","53","53","53","0","53","53","53","NA","0","53","NA","NA","0","53","NA","53","0","53","NA","NA","NA","53","0","0","NA","NA","53","53","53","53","53","54","/","Thu Oct 19 10:45:23 2023","Executes Python code","yes","m21-ba-lexicalDecision.osexp","C:\Users\ekealey\Desktop","no","mono","no","18","no","white","no","yes","1080","legacy","53","53","C:/Users/ekealey/Desktop/subject-224.csv","xpyriment","Lentiform Loewenfeld","3.3.11","0","/","NA","NA","NA","NA","space","/","495","NA","NA","NA","NA","58954","495","2","legacy","1024","2","48000","-16","AB_m21","224","even","FILL_W","LIFT","1719","290357","287186","288854","60842","NA","NA","NA","NA","NA","287687","NA","NA","NA","286684","NA","286658","1886","290707","NA","NA","NA","287728","1719","1873","NA","NA","288223","288250","286658","287687","287708","morph21_Oliver/Morris","51","38618","54","yes","1920","39"
"300","","94.54545454545455","94.54545454545455","717.8727272727273","717.8727272727273","black","no","xpyriment","legacy","legacy","0","205","NA","uniform","NA","NA","NA","1","undefined","1","0","54","54","54","0","54","54","54","NA","0","54","NA","NA","0","54","NA","54","0","54","NA","NA","NA","54","0","0","NA","NA","54","54","54","54","54","55","z","Thu Oct 19 10:45:23 2023","Executes Python code","yes","m21-ba-lexicalDecision.osexp","C:\Users\ekealey\Desktop","no","mono","no","18","no","white","no","yes","1080","legacy","54","54","C:/Users/ekealey/Desktop/subject-224.csv","xpyriment","Lentiform Loewenfeld","3.3.11","0","z","NA","NA","NA","NA","space","z","865","NA","NA","NA","NA","58954","865","2","legacy","1024","2","48000","-16","AB_m21","224","even","NW_S_SIMP","NEXTNESS","1719","294322","292289","288854","60842","NA","NA","NA","NA","NA","292790","NA","NA","NA","291787","NA","291756","1886","294622","NA","NA","NA","292830","1719","1873","NA","NA","293696","293719","291756","292789","292810","morph21_Oliver/Morris","52","39483","55","yes","1920","9"
"350","","94.64285714285714","94.64285714285714","717.4642857142857","717.4642857142857","black","no","xpyriment","legacy","legacy","0","208","NA","uniform","NA","NA","NA","1","undefined","1","0","55","55","55","0","55","55","55","NA","0","55","NA","NA","0","55","NA","55","0","55","NA","NA","NA","55","0","0","NA","NA","55","55","55","55","55","56","z","Thu Oct 19 10:45:23 2023","Executes Python code","yes","m21-ba-lexicalDecision.osexp","C:\Users\ekealey\Desktop","no","mono","no","18","no","white","no","yes","1080","legacy","55","55","C:/Users/ekealey/Desktop/subject-224.csv","xpyriment","Lentiform Loewenfeld","3.3.11","0","z","NA","NA","NA","NA","space","z","695","NA","NA","NA","NA","58954","695","2","legacy","1024","2","48000","-16","AB_m21","224","even","FILL_NW","DOADS","1719","298035","296171","288854","60842","NA","NA","NA","NA","NA","296671","NA","NA","NA","295671","NA","295645","1886","298385","NA","NA","NA","296712","1719","1873","NA","NA","297408","297432","295645","296671","296692","morph21_Oliver/Morris","53","40178","56","yes","1920","15"
"400","","94.73684210526316","94.73684210526316","717.8245614035088","717.8245614035088","black","no","xpyriment","legacy","legacy","0","203","NA","uniform","NA","NA","NA","1","undefined","1","0","56","56","56","0","56","56","56","NA","0","56","NA","NA","0","56","NA","56","0","56","NA","NA","NA","56","0","0","NA","NA","56","56","56","56","56","57","z","Thu Oct 19 10:45:23 2023","Executes Python code","yes","m21-ba-lexicalDecision.osexp","C:\Users\ekealey\Desktop","no","mono","no","18","no","white","no","yes","1080","legacy","56","56","C:/Users/ekealey/Desktop/subject-224.csv","xpyriment","Lentiform Loewenfeld","3.3.11","0","z","NA","NA","NA","NA","space","z","738","NA","NA","NA","NA","58954","738","2","legacy","1024","2","48000","-16","AB_m21","224","even","NW_S_COMP","TRUENELS","1719","303363","299951","301860","60842","NA","NA","NA","NA","NA","300453","NA","NA","NA","299449","NA","299423","1886","303763","NA","NA","NA","300493","1719","1873","NA","NA","301232","301256","299422","300453","300473","morph21_Oliver/Morris","54","40916","57","yes","1920","15"
"200","","94.82758620689656","94.82758620689656","715.7241379310345","715.7241379310345","black","no","xpyriment","legacy","legacy","0","208","NA","uniform","NA","NA","NA","1","undefined","1","0","57","57","57","0","57","57","57","NA","0","57","NA","NA","0","57","NA","57","0","57","NA","NA","NA","57","0","0","NA","NA","57","57","57","57","57","58","z","Thu Oct 19 10:45:23 2023","Executes Python code","yes","m21-ba-lexicalDecision.osexp","C:\Users\ekealey\Desktop","no","mono","no","18","no","white","no","yes","1080","legacy","57","57","C:/Users/ekealey/Desktop/subject-224.csv","xpyriment","Lentiform Loewenfeld","3.3.11","0","z","NA","NA","NA","NA","space","z","596","NA","NA","NA","NA","58954","596","2","legacy","1024","2","48000","-16","AB_m21","224","even","FILL_NW","VUNKS","1719","307085","305317","301860","60842","NA","NA","NA","NA","NA","305818","NA","NA","NA","304816","NA","304784","1886","307285","NA","NA","NA","305859","1719","1873","NA","NA","306455","306480","304784","305818","305839","morph21_Oliver/Morris","55","41512","58","yes","1920","49"
"350","","94.91525423728814","94.91525423728814","721.8983050847457","721.8983050847457","black","no","xpyriment","legacy","legacy","0","201","NA","uniform","NA","NA","NA","1","undefined","1","0","58","58","58","0","58","58","58","NA","0","58","NA","NA","0","58","NA","58","0","58","NA","NA","NA","58","0","0","NA","NA","58","58","58","58","58","59","/","Thu Oct 19 10:45:23 2023","Executes Python code","yes","m21-ba-lexicalDecision.osexp","C:\Users\ekealey\Desktop","no","mono","no","18","no","white","no","yes","1080","legacy","58","58","C:/Users/ekealey/Desktop/subject-224.csv","xpyriment","Lentiform Loewenfeld","3.3.11","0","/","NA","NA","NA","NA","space","/","1080","NA","NA","NA","NA","58954","1080","2","legacy","1024","2","48000","-16","AB_m21","224","even","CW_S","STRANGENESS","1719","311117","308866","301860","60842","NA","NA","NA","NA","NA","309366","NA","NA","NA","308366","NA","308338","1886","311467","NA","NA","NA","309407","1719","1873","NA","NA","310487","310512","308338","309366","309387","morph21_Oliver/Morris","56","42592","59","yes","1920","46"
"250","","95","95","721.85","721.85","black","no","xpyriment","legacy","legacy","0","202","NA","uniform","NA","NA","NA","1","undefined","1","0","59","59","59","0","59","59","59","NA","0","59","NA","NA","0","59","NA","59","0","59","NA","NA","NA","59","0","0","NA","NA","59","59","59","59","59","60","/","Thu Oct 19 10:45:23 2023","Executes Python code","yes","m21-ba-lexicalDecision.osexp","C:\Users\ekealey\Desktop","no","mono","no","18","no","white","no","yes","1080","legacy","59","59","C:/Users/ekealey/Desktop/subject-224.csv","xpyriment","Lentiform Loewenfeld","3.3.11","0","/","NA","NA","NA","NA","space","/","719","NA","NA","NA","NA","58954","719","2","legacy","1024","2","48000","-16","AB_m21","224","even","CW_L","CREAMY","1719","316442","313051","314938","60842","NA","NA","NA","NA","NA","313551","NA","NA","NA","312550","NA","312523","1886","316692","NA","NA","NA","313592","1719","1873","NA","NA","314312","314335","312523","313551","313572","morph21_Oliver/Morris","57","43311","60","yes","1920","49"
"400","","95.08196721311475","95.08196721311475","720.7704918032787","720.7704918032787","black","no","xpyriment","legacy","legacy","0","206","NA","uniform","NA","NA","NA","1","undefined","1","0","60","60","60","0","60","60","60","NA","0","60","NA","NA","0","60","NA","60","0","60","NA","NA","NA","60","0","0","NA","NA","60","60","60","60","60","61","z","Thu Oct 19 10:45:23 2023","Executes Python code","yes","m21-ba-lexicalDecision.osexp","C:\Users\ekealey\Desktop","no","mono","no","18","no","white","no","yes","1080","legacy","60","60","C:/Users/ekealey/Desktop/subject-224.csv","xpyriment","Lentiform Loewenfeld","3.3.11","0","z","NA","NA","NA","NA","space","z","656","NA","NA","NA","NA","58954","656","2","legacy","1024","2","48000","-16","AB_m21","224","even","NW_L_SIMP","BOGARY","1719","320107","318282","314938","60842","NA","NA","NA","NA","NA","318783","NA","NA","NA","317782","NA","317751","1886","320508","NA","NA","NA","318823","1719","1873","NA","NA","319480","319504","317751","318783","318803","morph21_Oliver/Morris","58","43967","61","yes","1920","2"
"300","","95.16129032258064","95.16129032258064","719.983870967742","719.983870967742","black","no","xpyriment","legacy","legacy","0","204","NA","uniform","NA","NA","NA","1","undefined","1","0","61","61","61","0","61","61","61","NA","0","61","NA","NA","0","61","NA","61","0","61","NA","NA","NA","61","0","0","NA","NA","61","61","61","61","61","62","z","Thu Oct 19 10:45:23 2023","Executes Python code","yes","m21-ba-lexicalDecision.osexp","C:\Users\ekealey\Desktop","no","mono","no","18","no","white","no","yes","1080","legacy","61","61","C:/Users/ekealey/Desktop/subject-224.csv","xpyriment","Lentiform Loewenfeld","3.3.11","0","z","NA","NA","NA","NA","space","z","672","NA","NA","NA","NA","58954","672","2","legacy","1024","2","48000","-16","AB_m21","224","even","NW_L_COMP","ILLILT","1719","323940","322098","314938","60842","NA","NA","NA","NA","NA","322598","NA","NA","NA","321598","NA","321571","1886","324240","NA","NA","NA","322639","1719","1873","NA","NA","323312","323336","321571","322598","322619","morph21_Oliver/Morris","59","44639","62","yes","1920","9"
"300","","95.23809523809524","95.23809523809524","717.0952380952381","717.0952380952381","black","no","xpyriment","legacy","legacy","0","201","NA","uniform","NA","NA","NA","1","undefined","1","0","62","62","62","0","62","62","62","NA","0","62","NA","NA","0","62","NA","62","0","62","NA","NA","NA","62","0","0","NA","NA","62","62","62","62","62","63","/","Thu Oct 19 10:45:23 2023","Executes Python code","yes","m21-ba-lexicalDecision.osexp","C:\Users\ekealey\Desktop","no","mono","no","18","no","white","no","yes","1080","legacy","62","62","C:/Users/ekealey/Desktop/subject-224.csv","xpyriment","Lentiform Loewenfeld","3.3.11","0","/","NA","NA","NA","NA","space","/","538","NA","NA","NA","NA","58954","538","2","legacy","1024","2","48000","-16","AB_m21","224","even","CW_S","GUILTY","1719","328994","325784","327491","60842","NA","NA","NA","NA","NA","326285","NA","NA","NA","325284","NA","325258","1886","329294","NA","NA","NA","326325","1719","1873","NA","NA","326864","326887","325258","326285","326305","morph21_Oliver/Morris","60","45177","63","yes","1920","34"
"300","","93.75","93.75","724.640625","724.640625","black","no","xpyriment","legacy","legacy","0","202","NA","uniform","NA","NA","NA","0","undefined","0","0","63","63","63","0","63","63","63","NA","0","63","NA","NA","0","63","NA","63","0","63","NA","NA","NA","63","0","0","NA","NA","63","63","63","63","63","64","/","Thu Oct 19 10:45:23 2023","Executes Python code","yes","m21-ba-lexicalDecision.osexp","C:\Users\ekealey\Desktop","no","mono","no","18","no","white","no","yes","1080","legacy","63","63","C:/Users/ekealey/Desktop/subject-224.csv","xpyriment","Lentiform Loewenfeld","3.3.11","0","None","NA","NA","NA","NA","space","None","1200","NA","NA","NA","NA","58954","1200","2","legacy","1024","2","48000","-16","AB_m21","224","even","CW_L","DAMPISH","1719","333247","330875","327491","60842","NA","NA","NA","NA","NA","331378","NA","NA","NA","330374","NA","330349","1886","333548","NA","NA","NA","331418","1719","1873","NA","NA","332618","332643","330349","331378","331398","morph21_Oliver/Morris","60","46377","64","yes","1920","28"
"200","","92.3076923076923","92.3076923076923","729.6307692307693","729.6307692307693","black","no","xpyriment","legacy","legacy","0","208","NA","uniform","NA","NA","NA","0","undefined","0","0","64","64","64","0","64","64","64","NA","0","64","NA","NA","0","64","NA","64","0","64","NA","NA","NA","64","0","0","NA","NA","64","64","64","64","64","65","z","Thu Oct 19 10:45:23 2023","Executes Python code","yes","m21-ba-lexicalDecision.osexp","C:\Users\ekealey\Desktop","no","mono","no","18","no","white","no","yes","1080","legacy","64","64","C:/Users/ekealey/Desktop/subject-224.csv","xpyriment","Lentiform Loewenfeld","3.3.11","0","/","NA","NA","NA","NA","space","/","1049","NA","NA","NA","NA","58954","1049","2","legacy","1024","2","48000","-16","AB_m21","224","even","FILL_NW","FALONS","1719","337315","335097","327491","60842","NA","NA","NA","NA","NA","335598","NA","NA","NA","334596","NA","334568","1886","337515","NA","NA","NA","335638","1719","1873","NA","NA","336688","336711","334568","335598","335618","morph21_Oliver/Morris","60","47426","65","yes","1920","19"
"250","","92.42424242424242","92.42424242424242","727.9242424242424","727.9242424242424","black","no","xpyriment","legacy","legacy","0","201","NA","uniform","NA","NA","NA","1","undefined","1","0","65","65","65","0","65","65","65","NA","0","65","NA","NA","0","65","NA","65","0","65","NA","NA","NA","65","0","0","NA","NA","65","65","65","65","65","66","/","Thu Oct 19 10:45:23 2023","Executes Python code","yes","m21-ba-lexicalDecision.osexp","C:\Users\ekealey\Desktop","no","mono","no","18","no","white","no","yes","1080","legacy","65","65","C:/Users/ekealey/Desktop/subject-224.csv","xpyriment","Lentiform Loewenfeld","3.3.11","0","/","NA","NA","NA","NA","space","/","617","NA","NA","NA","NA","58954","617","2","legacy","1024","2","48000","-16","AB_m21","224","even","CW_S","TUTORING","1719","342357","339065","340853","60842","NA","NA","NA","NA","NA","339565","NA","NA","NA","338564","NA","338536","1886","342607","NA","NA","NA","339606","1719","1873","NA","NA","340224","340248","338536","339565","339586","morph21_Oliver/Morris","61","48043","66","yes","1920","27"
"200","","92.53731343283582","92.53731343283582","726.9850746268656","726.9850746268656","black","no","xpyriment","legacy","legacy","0","201","NA","uniform","NA","NA","NA","1","undefined","1","0","66","66","66","0","66","66","66","NA","0","66","NA","NA","0","66","NA","66","0","66","NA","NA","NA","66","0","0","NA","NA","66","66","66","66","66","67","/","Thu Oct 19 10:45:23 2023","Executes Python code","yes","m21-ba-lexicalDecision.osexp","C:\Users\ekealey\Desktop","no","mono","no","18","no","white","no","yes","1080","legacy","66","66","C:/Users/ekealey/Desktop/subject-224.csv","xpyriment","Lentiform Loewenfeld","3.3.11","0","/","NA","NA","NA","NA","space","/","665","NA","NA","NA","NA","58954","665","2","legacy","1024","2","48000","-16","AB_m21","224","even","CW_S","ANGELIC","1719","346004","344169","340853","60842","NA","NA","NA","NA","NA","344669","NA","NA","NA","343668","NA","343638","1886","346204","NA","NA","NA","344710","1719","1873","NA","NA","345376","345400","343638","344669","344690","morph21_Oliver/Morris","62","48708","67","yes","1920","25"
"400","","92.6470588235294","92.6470588235294","727.1323529411765","727.1323529411765","black","no","xpyriment","legacy","legacy","0","207","NA","uniform","NA","NA","NA","1","undefined","1","0","67","67","67","0","67","67","67","NA","0","67","NA","NA","0","67","NA","67","0","67","NA","NA","NA","67","0","0","NA","NA","67","67","67","67","67","68","/","Thu Oct 19 10:45:23 2023","Executes Python code","yes","m21-ba-lexicalDecision.osexp","C:\Users\ekealey\Desktop","no","mono","no","18","no","white","no","yes","1080","legacy","67","67","C:/Users/ekealey/Desktop/subject-224.csv","xpyriment","Lentiform Loewenfeld","3.3.11","0","/","NA","NA","NA","NA","space","/","737","NA","NA","NA","NA","58954","737","2","legacy","1024","2","48000","-16","AB_m21","224","even","FILL_W","CEASE","1719","349658","347753","340853","60842","NA","NA","NA","NA","NA","348253","NA","NA","NA","347252","NA","347226","1886","350058","NA","NA","NA","348294","1719","1873","NA","NA","349032","349055","347226","348253","348274","morph21_Oliver/Morris","63","49445","68","yes","1920","18"
"200","","92.7536231884058","92.7536231884058","727.5652173913044","727.5652173913044","black","no","xpyriment","legacy","legacy","0","203","NA","uniform","NA","NA","NA","1","undefined","1","0","68","68","68","0","68","68","68","NA","0","68","NA","NA","0","68","NA","68","0","68","NA","NA","NA","68","0","0","NA","NA","68","68","68","68","68","69","z","Thu Oct 19 10:45:23 2023","Executes Python code","yes","m21-ba-lexicalDecision.osexp","C:\Users\ekealey\Desktop","no","mono","no","18","no","white","no","yes","1080","legacy","68","68","C:/Users/ekealey/Desktop/subject-224.csv","xpyriment","Lentiform Loewenfeld","3.3.11","0","z","NA","NA","NA","NA","space","z","757","NA","NA","NA","NA","58954","757","2","legacy","1024","2","48000","-16","AB_m21","224","even","NW_S_COMP","ELMILT","1719","355066","351637","353562","60842","NA","NA","NA","NA","NA","352137","NA","NA","NA","351137","NA","351108","1886","355267","NA","NA","NA","352178","1719","1873","NA","NA","352935","352959","351108","352137","352158","morph21_Oliver/Morris","64","50202","69","yes","1920","10"
"350","","92.85714285714286","92.85714285714286","724.8142857142857","724.8142857142857","black","no","xpyriment","legacy","legacy","0","202","NA","uniform","NA","NA","NA","1","undefined","1","0","69","69","69","0","69","69","69","NA","0","69","NA","NA","0","69","NA","69","0","69","NA","NA","NA","69","0","0","NA","NA","69","69","69","69","69","70","/","Thu Oct 19 10:45:23 2023","Executes Python code","yes","m21-ba-lexicalDecision.osexp","C:\Users\ekealey\Desktop","no","mono","no","18","no","white","no","yes","1080","legacy","69","69","C:/Users/ekealey/Desktop/subject-224.csv","xpyriment","Lentiform Loewenfeld","3.3.11","0","/","NA","NA","NA","NA","space","/","535","NA","NA","NA","NA","58954","535","2","legacy","1024","2","48000","-16","AB_m21","224","even","CW_L","EDITOR","1719","358530","356826","353562","60842","NA","NA","NA","NA","NA","357326","NA","NA","NA","356326","NA","356293","1886","358880","NA","NA","NA","357368","1719","1873","NA","NA","357903","357927","356293","357326","357347","morph21_Oliver/Morris","65","50737","70","yes","1920","45"
"400","","91.54929577464789","91.54929577464789","731.5070422535211","731.5070422535211","black","no","xpyriment","legacy","legacy","0","205","NA","uniform","NA","NA","NA","0","undefined","0","0","70","70","70","0","70","70","70","NA","0","70","NA","NA","0","70","NA","70","0","70","NA","NA","NA","70","0","0","NA","NA","70","70","70","70","70","71","z","Thu Oct 19 10:45:23 2023","Executes Python code","yes","m21-ba-lexicalDecision.osexp","C:\Users\ekealey\Desktop","no","mono","no","18","no","white","no","yes","1080","legacy","70","70","C:/Users/ekealey/Desktop/subject-224.csv","xpyriment","Lentiform Loewenfeld","3.3.11","0","None","NA","NA","NA","NA","space","None","1200","NA","NA","NA","NA","58954","1200","2","legacy","1024","2","48000","-16","AB_m21","224","even","NW_S_SIMP","ADVERTISELY","1719","362825","360457","353562","60842","NA","NA","NA","NA","NA","360959","NA","NA","NA","359956","NA","359928","1886","363225","NA","NA","NA","360999","1719","1873","NA","NA","362199","362222","359928","360958","360979","morph21_Oliver/Morris","65","51937","71","yes","1920","25"
"400","","91.66666666666667","91.66666666666667","730.9444444444445","730.9444444444445","black","no","xpyriment","legacy","legacy","0","204","NA","uniform","NA","NA","NA","1","undefined","1","0","71","71","71","0","71","71","71","NA","0","71","NA","NA","0","71","NA","71","0","71","NA","NA","NA","71","0","0","NA","NA","71","71","71","71","71","72","z","Thu Oct 19 10:45:23 2023","Executes Python code","yes","m21-ba-lexicalDecision.osexp","C:\Users\ekealey\Desktop","no","mono","no","18","no","white","no","yes","1080","legacy","71","71","C:/Users/ekealey/Desktop/subject-224.csv","xpyriment","Lentiform Loewenfeld","3.3.11","0","z","NA","NA","NA","NA","space","z","691","NA","NA","NA","NA","58954","691","2","legacy","1024","2","48000","-16","AB_m21","224","even","NW_L_COMP","RIPENGE","1719","368172","364807","366669","60842","NA","NA","NA","NA","NA","365308","NA","NA","NA","364306","NA","364281","1886","368572","NA","NA","NA","365348","1719","1873","NA","NA","366040","366064","364281","365307","365328","morph21_Oliver/Morris","66","52628","72","yes","1920","4"
"250","","91.78082191780823","91.78082191780823","728.5753424657535","728.5753424657535","black","no","xpyriment","legacy","legacy","0","207","NA","uniform","NA","NA","NA","1","undefined","1","0","72","72","72","0","72","72","72","NA","0","72","NA","NA","0","72","NA","72","0","72","NA","NA","NA","72","0","0","NA","NA","72","72","72","72","72","73","/","Thu Oct 19 10:45:23 2023","Executes Python code","yes","m21-ba-lexicalDecision.osexp","C:\Users\ekealey\Desktop","no","mono","no","18","no","white","no","yes","1080","legacy","72","72","C:/Users/ekealey/Desktop/subject-224.csv","xpyriment","Lentiform Loewenfeld","3.3.11","0","/","NA","NA","NA","NA","space","/","558","NA","NA","NA","NA","58954","558","2","legacy","1024","2","48000","-16","AB_m21","224","even","FILL_W","SOFT","1719","371885","370156","366669","60842","NA","NA","NA","NA","NA","370657","NA","NA","NA","369655","NA","369629","1886","372135","NA","NA","NA","370697","1719","1873","NA","NA","371256","371279","369629","370657","370677","morph21_Oliver/Morris","67","53186","73","yes","1920","43"
"400","","91.89189189189189","91.89189189189189","729.1756756756756","729.1756756756756","black","no","xpyriment","legacy","legacy","0","208","NA","uniform","NA","NA","NA","1","undefined","1","0","73","73","73","0","73","73","73","NA","0","73","NA","NA","0","73","NA","73","0","73","NA","NA","NA","73","0","0","NA","NA","73","73","73","73","73","74","z","Thu Oct 19 10:45:23 2023","Executes Python code","yes","m21-ba-lexicalDecision.osexp","C:\Users\ekealey\Desktop","no","mono","no","18","no","white","no","yes","1080","legacy","73","73","C:/Users/ekealey/Desktop/subject-224.csv","xpyriment","Lentiform Loewenfeld","3.3.11","0","z","NA","NA","NA","NA","space","z","773","NA","NA","NA","NA","58954","773","2","legacy","1024","2","48000","-16","AB_m21","224","even","FILL_NW","BORMS","1719","375674","373733","366669","60842","NA","NA","NA","NA","NA","374233","NA","NA","NA","373233","NA","373204","1886","376074","NA","NA","NA","374274","1719","1873","NA","NA","375047","375071","373204","374233","374254","morph21_Oliver/Morris","68","53959","74","yes","1920","50"
"400","","92","92","729.48","729.48","black","no","xpyriment","legacy","legacy","0","204","NA","uniform","NA","NA","NA","undefined","undefined","1","0","74","74","74","0","74","74","74","NA","0","74","NA","NA","0","74","NA","74","0","74","NA","NA","NA","74","0","0","NA","NA","74","74","74","74","74","75","z","Thu Oct 19 10:45:23 2023","Executes Python code","yes","m21-ba-lexicalDecision.osexp","C:\Users\ekealey\Desktop","no","mono","no","18","no","white","no","yes","1080","legacy","74","74","C:/Users/ekealey/Desktop/subject-224.csv","xpyriment","Lentiform Loewenfeld","3.3.11","0","space","space","NA","NA","NA","space","z","11086","11086","NA","NA","NA","58954","752","2","legacy","1024","2","48000","-16","AB_m21","224","even","NW_L_COMP","COLDIDY","1719","381057","377633","379555","60842","381465","NA","NA","NA","NA","378134","NA","NA","NA","377133","NA","377104","1886","392552","NA","NA","NA","378174","1719","1873","NA","NA","378927","378952","377104","378134","378154","morph21_Oliver/Morris","69","54711","75","yes","1920","10"
"250","","90.78947368421052","90.78947368421052","735.671052631579","735.671052631579","black","no","xpyriment","legacy","legacy","0","202","NA","uniform","NA","NA","NA","0","undefined","0","0","75","75","75","0","75","75","75","NA","0","75","NA","NA","0","75","NA","75","0","75","NA","NA","NA","75","0","0","NA","NA","75","75","75","75","75","76","/","Thu Oct 19 10:45:23 2023","Executes Python code","yes","m21-ba-lexicalDecision.osexp","C:\Users\ekealey\Desktop","no","mono","no","18","no","white","no","yes","1080","legacy","75","75","C:/Users/ekealey/Desktop/subject-224.csv","xpyriment","Lentiform Loewenfeld","3.3.11","0","None","space","NA","NA","NA","space","None","1200","11086","NA","NA","NA","58954","1200","2","legacy","1024","2","48000","-16","AB_m21","224","even","CW_L","EXCITEMENT","1719","396490","394123","379555","60842","381465","NA","NA","NA","NA","394623","NA","NA","NA","393622","NA","393592","1886","396740","NA","NA","NA","394664","1719","1873","NA","NA","395864","395887","393592","394623","394644","morph21_Oliver/Morris","69","55911","76","yes","1920","38"
"300","","90.9090909090909","90.9090909090909","738.5844155844156","738.5844155844156","black","no","xpyriment","legacy","legacy","0","208","NA","uniform","NA","NA","NA","1","undefined","1","0","76","76","76","0","76","76","76","NA","0","76","NA","NA","0","76","NA","76","0","76","NA","NA","NA","76","0","0","NA","NA","76","76","76","76","76","77","z","Thu Oct 19 10:45:23 2023","Executes Python code","yes","m21-ba-lexicalDecision.osexp","C:\Users\ekealey\Desktop","no","mono","no","18","no","white","no","yes","1080","legacy","76","76","C:/Users/ekealey/Desktop/subject-224.csv","xpyriment","Lentiform Loewenfeld","3.3.11","0","z","space","NA","NA","NA","space","z","960","11086","NA","NA","NA","58954","960","2","legacy","1024","2","48000","-16","AB_m21","224","even","FILL_NW","BAFED","1719","400428","398299","379555","60842","381465","NA","NA","NA","NA","398799","NA","NA","NA","397798","NA","397770","1886","400728","NA","NA","NA","398839","1719","1873","NA","NA","399800","399823","397770","398799","398819","morph21_Oliver/Morris","70","56871","77","yes","1920","1"
"300","","91.02564102564102","91.02564102564102","738.0128205128206","738.0128205128206","black","no","xpyriment","legacy","legacy","0","208","NA","uniform","NA","NA","NA","1","undefined","1","0","77","77","77","0","77","77","77","NA","0","77","NA","NA","0","77","NA","77","0","77","NA","NA","NA","77","0","0","NA","NA","77","77","77","77","77","78","z","Thu Oct 19 10:45:23 2023","Executes Python code","yes","m21-ba-lexicalDecision.osexp","C:\Users\ekealey\Desktop","no","mono","no","18","no","white","no","yes","1080","legacy","77","77","C:/Users/ekealey/Desktop/subject-224.csv","xpyriment","Lentiform Loewenfeld","3.3.11","0","z","space","NA","NA","NA","space","z","694","11086","NA","NA","NA","58954","694","2","legacy","1024","2","48000","-16","AB_m21","224","even","FILL_NW","KEMT","1719","405641","402274","404138","60842","381465","NA","NA","NA","NA","402776","NA","NA","NA","401773","NA","401748","1886","405941","NA","NA","NA","402816","1719","1873","NA","NA","403511","403535","401748","402776","402796","morph21_Oliver/Morris","71","57565","78","yes","1920","32"
"200","","91.13924050632912","91.13924050632912","737.5189873417721","737.5189873417721","black","no","xpyriment","legacy","legacy","0","201","NA","uniform","NA","NA","NA","1","undefined","1","0","78","78","78","0","78","78","78","NA","0","78","NA","NA","0","78","NA","78","0","78","NA","NA","NA","78","0","0","NA","NA","78","78","78","78","78","79","/","Thu Oct 19 10:45:23 2023","Executes Python code","yes","m21-ba-lexicalDecision.osexp","C:\Users\ekealey\Desktop","no","mono","no","18","no","white","no","yes","1080","legacy","78","78","C:/Users/ekealey/Desktop/subject-224.csv","xpyriment","Lentiform Loewenfeld","3.3.11","0","/","space","NA","NA","NA","space","/","699","11086","NA","NA","NA","58954","699","2","legacy","1024","2","48000","-16","AB_m21","224","even","CW_S","CAMPAIGNER","1719","409410","407543","404138","60842","381465","NA","NA","NA","NA","408044","NA","NA","NA","407042","NA","407018","1886","409611","NA","NA","NA","408084","1719","1873","NA","NA","408784","408807","407018","408043","408064","morph21_Oliver/Morris","72","58264","79","yes","1920","15"
"250","","91.25","91.25","738.325","738.325","black","no","xpyriment","legacy","legacy","0","202","NA","uniform","NA","NA","NA","1","undefined","1","0","79","79","79","0","79","79","79","NA","0","79","NA","NA","0","79","NA","79","0","79","NA","NA","NA","79","0","0","NA","NA","79","79","79","79","79","80","/","Thu Oct 19 10:45:23 2023","Executes Python code","yes","m21-ba-lexicalDecision.osexp","C:\Users\ekealey\Desktop","no","mono","no","18","no","white","no","yes","1080","legacy","79","79","C:/Users/ekealey/Desktop/subject-224.csv","xpyriment","Lentiform Loewenfeld","3.3.11","0","/","space","NA","NA","NA","space","/","802","11086","NA","NA","NA","58954","802","2","legacy","1024","2","48000","-16","AB_m21","224","even","CW_L","LAUGHING","1719","413138","411167","404138","60842","381465","NA","NA","NA","NA","411667","NA","NA","NA","410667","NA","410637","1886","413388","NA","NA","NA","411708","1719","1873","NA","NA","412511","412535","410637","411667","411688","morph21_Oliver/Morris","73","59066","80","yes","1920","27"
"350","","91.35802469135803","91.35802469135803","742.4320987654321","742.4320987654321","black","no","xpyriment","legacy","legacy","0","203","NA","uniform","NA","NA","NA","1","undefined","1","0","80","80","80","0","80","80","80","NA","0","80","NA","NA","0","80","NA","80","0","80","NA","NA","NA","80","0","0","NA","NA","80","80","80","80","80","81","z","Thu Oct 19 10:45:23 2023","Executes Python code","yes","m21-ba-lexicalDecision.osexp","C:\Users\ekealey\Desktop","no","mono","no","18","no","white","no","yes","1080","legacy","80","80","C:/Users/ekealey/Desktop/subject-224.csv","xpyriment","Lentiform Loewenfeld","3.3.11","0","z","space","NA","NA","NA","space","z","1071","11086","NA","NA","NA","58954","1071","2","legacy","1024","2","48000","-16","AB_m21","224","even","NW_S_COMP","HUMIDOES","1719","418699","414954","417195","60842","381465","NA","NA","NA","NA","415455","NA","NA","NA","414452","NA","414425","1886","419049","NA","NA","NA","415495","1719","1873","NA","NA","416567","416591","414425","415455","415475","morph21_Oliver/Morris","74","60137","81","yes","1920","25"
"200","","91.46341463414635","91.46341463414635","745.4878048780488","745.4878048780488","black","no","xpyriment","legacy","legacy","0","205","NA","uniform","NA","NA","NA","1","undefined","1","0","81","81","81","0","81","81","81","NA","0","81","NA","NA","0","81","NA","81","0","81","NA","NA","NA","81","0","0","NA","NA","81","81","81","81","81","82","z","Thu Oct 19 10:45:23 2023","Executes Python code","yes","m21-ba-lexicalDecision.osexp","C:\Users\ekealey\Desktop","no","mono","no","18","no","white","no","yes","1080","legacy","81","81","C:/Users/ekealey/Desktop/subject-224.csv","xpyriment","Lentiform Loewenfeld","3.3.11","0","z","space","NA","NA","NA","space","z","993","11086","NA","NA","NA","58954","993","2","legacy","1024","2","48000","-16","AB_m21","224","even","NW_S_SIMP","JAWLY","1719","422779","420616","417195","60842","381465","NA","NA","NA","NA","421118","NA","NA","NA","420115","NA","420086","1886","422980","NA","NA","NA","421158","1719","1873","NA","NA","422152","422175","420086","421118","421138","morph21_Oliver/Morris","75","61130","82","yes","1920","7"
"300","","90.36144578313252","90.36144578313252","747.5783132530121","747.5783132530121","black","no","xpyriment","legacy","legacy","0","205","NA","uniform","NA","NA","NA","0","undefined","0","0","82","82","82","0","82","82","82","NA","0","82","NA","NA","0","82","NA","82","0","82","NA","NA","NA","82","0","0","NA","NA","82","82","82","82","82","83","z","Thu Oct 19 10:45:23 2023","Executes Python code","yes","m21-ba-lexicalDecision.osexp","C:\Users\ekealey\Desktop","no","mono","no","18","no","white","no","yes","1080","legacy","82","82","C:/Users/ekealey/Desktop/subject-224.csv","xpyriment","Lentiform Loewenfeld","3.3.11","0","/","space","NA","NA","NA","space","/","919","11086","NA","NA","NA","58954","919","2","legacy","1024","2","48000","-16","AB_m21","224","even","NW_S_SIMP","TILTARY","1719","426659","424569","417195","60842","381465","NA","NA","NA","NA","425069","NA","NA","NA","424069","NA","424040","1886","426959","NA","NA","NA","425111","1719","1873","NA","NA","426032","426056","424040","425069","425091","morph21_Oliver/Morris","75","62049","83","yes","1920","17"
"300","","89.28571428571429","89.28571428571429","749.7738095238095","749.7738095238095","black","no","xpyriment","legacy","legacy","0","208","NA","uniform","NA","NA","NA","0","undefined","0","0","83","83","83","0","83","83","83","NA","0","83","NA","NA","0","83","NA","83","0","83","NA","NA","NA","83","0","0","NA","NA","83","83","83","83","83","84","z","Thu Oct 19 10:45:23 2023","Executes Python code","yes","m21-ba-lexicalDecision.osexp","C:\Users\ekealey\Desktop","no","mono","no","18","no","white","no","yes","1080","legacy","83","83","C:/Users/ekealey/Desktop/subject-224.csv","xpyriment","Lentiform Loewenfeld","3.3.11","0","/","space","NA","NA","NA","space","/","932","11086","NA","NA","NA","58954","932","2","legacy","1024","2","48000","-16","AB_m21","224","even","FILL_NW","SCURE","1719","432195","428590","430691","60842","381465","NA","NA","NA","NA","429090","NA","NA","NA","428090","NA","428059","1886","432495","NA","NA","NA","429131","1719","1873","NA","NA","430063","430088","428059","429090","429111","morph21_Oliver/Morris","75","62981","84","yes","1920","41"
"350","","88.23529411764706","88.23529411764706","755.0705882352942","755.0705882352942","black","no","xpyriment","legacy","legacy","0","203","NA","uniform","NA","NA","NA","0","undefined","0","0","84","84","84","0","84","84","84","NA","0","84","NA","NA","0","84","NA","84","0","84","NA","NA","NA","84","0","0","NA","NA","84","84","84","84","84","85","z","Thu Oct 19 10:45:23 2023","Executes Python code","yes","m21-ba-lexicalDecision.osexp","C:\Users\ekealey\Desktop","no","mono","no","18","no","white","no","yes","1080","legacy","84","84","C:/Users/ekealey/Desktop/subject-224.csv","xpyriment","Lentiform Loewenfeld","3.3.11","0","None","space","NA","NA","NA","space","None","1200","11086","NA","NA","NA","58954","1200","2","legacy","1024","2","48000","-16","AB_m21","224","even","NW_S_COMP","EJECTENGE","1719","436473","434106","430691","60842","381465","NA","NA","NA","NA","434607","NA","NA","NA","433605","NA","433577","1886","436823","NA","NA","NA","434647","1719","1873","NA","NA","435847","435870","433577","434607","434627","morph21_Oliver/Morris","75","64181","85","yes","1920","20"
"200","","88.37209302325581","88.37209302325581","754.6511627906976","754.6511627906976","black","no","xpyriment","legacy","legacy","0","203","NA","uniform","NA","NA","NA","1","undefined","1","0","85","85","85","0","85","85","85","NA","0","85","NA","NA","0","85","NA","85","0","85","NA","NA","NA","85","0","0","NA","NA","85","85","85","85","85","86","z","Thu Oct 19 10:45:23 2023","Executes Python code","yes","m21-ba-lexicalDecision.osexp","C:\Users\ekealey\Desktop","no","mono","no","18","no","white","no","yes","1080","legacy","85","85","C:/Users/ekealey/Desktop/subject-224.csv","xpyriment","Lentiform Loewenfeld","3.3.11","0","z","space","NA","NA","NA","space","z","719","11086","NA","NA","NA","58954","719","2","legacy","1024","2","48000","-16","AB_m21","224","even","NW_S_COMP","FANFIL","1719","440306","438416","430691","60842","381465","NA","NA","NA","NA","438918","NA","NA","NA","437915","NA","437889","1886","440507","NA","NA","NA","438959","1719","1873","NA","NA","439679","439703","437889","438918","438939","morph21_Oliver/Morris","76","64900","86","yes","1920","6"
"350","","88.50574712643679","88.50574712643679","754.3448275862069","754.3448275862069","black","no","xpyriment","legacy","legacy","0","206","NA","uniform","NA","NA","NA","1","undefined","1","0","86","86","86","0","86","86","86","NA","0","86","NA","NA","0","86","NA","86","0","86","NA","NA","NA","86","0","0","NA","NA","86","86","86","86","86","87","z","Thu Oct 19 10:45:23 2023","Executes Python code","yes","m21-ba-lexicalDecision.osexp","C:\Users\ekealey\Desktop","no","mono","no","18","no","white","no","yes","1080","legacy","86","86","C:/Users/ekealey/Desktop/subject-224.csv","xpyriment","Lentiform Loewenfeld","3.3.11","0","z","space","NA","NA","NA","space","z","728","11086","NA","NA","NA","58954","728","2","legacy","1024","2","48000","-16","AB_m21","224","even","NW_L_SIMP","HABITIC","1719","445475","442073","443971","60842","381465","NA","NA","NA","NA","442573","NA","NA","NA","441572","NA","441543","1886","445825","NA","NA","NA","442614","1719","1873","NA","NA","443343","443367","441543","442573","442594","morph21_Oliver/Morris","77","65628","87","yes","1920","7"
"300","","88.63636363636364","88.63636363636364","754","754","black","no","xpyriment","legacy","legacy","0","207","NA","uniform","NA","NA","NA","1","undefined","1","0","87","87","87","0","87","87","87","NA","0","87","NA","NA","0","87","NA","87","0","87","NA","NA","NA","87","0","0","NA","NA","87","87","87","87","87","88","/","Thu Oct 19 10:45:23 2023","Executes Python code","yes","m21-ba-lexicalDecision.osexp","C:\Users\ekealey\Desktop","no","mono","no","18","no","white","no","yes","1080","legacy","87","87","C:/Users/ekealey/Desktop/subject-224.csv","xpyriment","Lentiform Loewenfeld","3.3.11","0","/","space","NA","NA","NA","space","/","724","11086","NA","NA","NA","58954","724","2","legacy","1024","2","48000","-16","AB_m21","224","even","FILL_W","MOURN","1719","449292","447398","443971","60842","381465","NA","NA","NA","NA","447898","NA","NA","NA","446898","NA","446867","1886","449592","NA","NA","NA","447939","1719","1873","NA","NA","448664","448689","446867","447898","447919","morph21_Oliver/Morris","78","66352","88","yes","1920","26"
"400","","88.76404494382022","88.76404494382022","752.0898876404494","752.0898876404494","black","no","xpyriment","legacy","legacy","0","201","NA","uniform","NA","NA","NA","1","undefined","1","0","88","88","88","0","88","88","88","NA","0","88","NA","NA","0","88","NA","88","0","88","NA","NA","NA","88","0","0","NA","NA","88","88","88","88","88","89","/","Thu Oct 19 10:45:23 2023","Executes Python code","yes","m21-ba-lexicalDecision.osexp","C:\Users\ekealey\Desktop","no","mono","no","18","no","white","no","yes","1080","legacy","88","88","C:/Users/ekealey/Desktop/subject-224.csv","xpyriment","Lentiform Loewenfeld","3.3.11","0","/","space","NA","NA","NA","space","/","584","11086","NA","NA","NA","58954","584","2","legacy","1024","2","48000","-16","AB_m21","224","even","CW_S","ALLOWANCE","1719","452930","451177","443971","60842","381465","NA","NA","NA","NA","451679","NA","NA","NA","450675","NA","450651","1886","453330","NA","NA","NA","451719","1719","1873","NA","NA","452304","452327","450651","451679","451699","morph21_Oliver/Morris","79","66936","89","yes","1920","5"
"350","","88.88888888888889","88.88888888888889","752.0222222222222","752.0222222222222","black","no","xpyriment","legacy","legacy","0","204","NA","uniform","NA","NA","NA","1","undefined","1","0","89","89","89","0","89","89","89","NA","0","89","NA","NA","0","89","NA","89","0","89","NA","NA","NA","89","0","0","NA","NA","89","89","89","89","89","90","z","Thu Oct 19 10:45:23 2023","Executes Python code","yes","m21-ba-lexicalDecision.osexp","C:\Users\ekealey\Desktop","no","mono","no","18","no","white","no","yes","1080","legacy","89","89","C:/Users/ekealey/Desktop/subject-224.csv","xpyriment","Lentiform Loewenfeld","3.3.11","0","z","space","NA","NA","NA","space","z","746","11086","NA","NA","NA","58954","746","2","legacy","1024","2","48000","-16","AB_m21","224","even","NW_L_COMP","AGREELA","1719","458373","454950","456868","60842","381465","NA","NA","NA","NA","455451","NA","NA","NA","454449","NA","454423","1886","458723","NA","NA","NA","455492","1719","1873","NA","NA","456239","456263","454423","455451","455472","morph21_Oliver/Morris","80","67682","90","yes","1920","24"
"350","","89.01098901098901","89.01098901098901","752.3956043956044","752.3956043956044","black","no","xpyriment","legacy","legacy","0","202","NA","uniform","NA","NA","NA","1","undefined","1","0","90","90","90","0","90","90","90","NA","0","90","NA","NA","0","90","NA","90","0","90","NA","NA","NA","90","0","0","NA","NA","90","90","90","90","90","91","/","Thu Oct 19 10:45:23 2023","Executes Python code","yes","m21-ba-lexicalDecision.osexp","C:\Users\ekealey\Desktop","no","mono","no","18","no","white","no","yes","1080","legacy","90","90","C:/Users/ekealey/Desktop/subject-224.csv","xpyriment","Lentiform Loewenfeld","3.3.11","0","/","space","NA","NA","NA","space","/","786","11086","NA","NA","NA","58954","786","2","legacy","1024","2","48000","-16","AB_m21","224","even","CW_L","PUNCHER","1719","462274","460318","456868","60842","381465","NA","NA","NA","NA","460821","NA","NA","NA","459816","NA","459791","1886","462624","NA","NA","NA","460861","1719","1873","NA","NA","461648","461671","459790","460821","460841","morph21_Oliver/Morris","81","68468","91","yes","1920","1"
"350","","89.1304347826087","89.1304347826087","750.5869565217391","750.5869565217391","black","no","xpyriment","legacy","legacy","0","201","NA","uniform","NA","NA","NA","1","undefined","1","0","91","91","91","0","91","91","91","NA","0","91","NA","NA","0","91","NA","91","0","91","NA","NA","NA","91","0","0","NA","NA","91","91","91","91","91","92","/","Thu Oct 19 10:45:23 2023","Executes Python code","yes","m21-ba-lexicalDecision.osexp","C:\Users\ekealey\Desktop","no","mono","no","18","no","white","no","yes","1080","legacy","91","91","C:/Users/ekealey/Desktop/subject-224.csv","xpyriment","Lentiform Loewenfeld","3.3.11","0","/","space","NA","NA","NA","space","/","586","11086","NA","NA","NA","58954","586","2","legacy","1024","2","48000","-16","AB_m21","224","even","CW_S","BEARDED","1719","465949","464191","456868","60842","381465","NA","NA","NA","NA","464692","NA","NA","NA","463690","NA","463663","1886","466299","NA","NA","NA","464733","1719","1873","NA","NA","465320","465343","463663","464692","464713","morph21_Oliver/Morris","82","69054","92","yes","1920","8"
