"ITI","_prepare","acc","accuracy","average_response_time","avg_rt","background","bidi","canvas_backend","clock_backend","color_backend","compensation","cond_trig","condtrigtime","coordinates","coroutines_cycles","coroutines_duration","coroutines_mean_cycle_duration","correct","correct_instructions_1","correct_new_keyboard_response_1","count_AB_m21","count_ITI","count_blank_screen","count_blink_screen","count_block1","count_break1","count_break2","count_break3_1","count_canvas","count_close_port","count_cond_trigger","count_correct_trigger","count_def_chain","count_end_screen","count_fixation_1","count_getting_started","count_inc_counter","count_instructions_1","count_logger","count_logscript","count_new_inline_script","count_new_inline_script_2","count_new_keyboard_response_1","count_open_port","count_reset_counter_prep","count_reset_counter_run","count_reset_counter_run_1","count_response_trigger_trial","count_responsescreen","count_sequence","count_target_present","count_word_trigger","counter","cresp","datetime","description","disable_garbage_collection","experiment_file","experiment_path","font_bold","font_family","font_italic","font_size","font_underline","foreground","form_clicks","fullscreen","height","keyboard_backend","live_row","live_row_block1","logfile","mouse_backend","opensesame_codename","opensesame_version","repeat_cycle","response","response_break1","response_break2","response_break3_1","response_end_screen","response_instructions_1","response_new_keyboard_response_1","response_time","response_time_break1","response_time_break2","response_time_break3_1","response_time_end_screen","response_time_instructions_1","response_time_new_keyboard_response_1","round_decimals","sampler_backend","sound_buf_size","sound_channels","sound_freq","sound_sample_size","start","subject_nr","subject_parity","targ_type","target","time_AB_m21","time_ITI","time_blank_screen","time_blink_screen","time_block1","time_break1","time_break2","time_break3_1","time_canvas","time_close_port","time_cond_trigger","time_correct_trigger","time_def_chain","time_end_screen","time_fixation_1","time_getting_started","time_inc_counter","time_instructions_1","time_logger","time_logscript","time_new_inline_script","time_new_inline_script_2","time_new_keyboard_response_1","time_open_port","time_reset_counter_prep","time_reset_counter_run","time_reset_counter_run_1","time_response_trigger_trial","time_responsescreen","time_sequence","time_target_present","time_word_trigger","title","total_correct","total_response_time","total_responses","uniform_coordinates","width","word_trig"
"350","","0","0","1200","1200","black","no","xpyriment","legacy","legacy","0","203","NA","uniform","NA","NA","NA","0","undefined","0","0","0","0","0","0","0","0","0","NA","0","0","NA","NA","0","0","NA","0","0","0","NA","NA","NA","0","0","0","NA","NA","0","0","0","0","0","1","z","Wed Apr 10 14:42:32 2024","Executes Python code","yes","m21-ba-lexicalDecision.osexp","C:\Users\ekealey\Desktop","no","mono","no","18","no","white","no","yes","1080","legacy","0","0","C:/Users/ekealey/Desktop/subject-242.csv","xpyriment","Lentiform Loewenfeld","3.3.11","0","None","NA","NA","NA","NA","space","None","1200","NA","NA","NA","NA","70173","1200","2","legacy","1024","2","48000","-16","AB_m21","242","even","NW_S_COMP","EJECTENGE","1678","76311","73943","NA","72019","NA","NA","NA","NA","NA","74443","NA","NA","NA","73442","NA","73409","1845","76661","NA","NA","NA","74484","1678","1832","NA","NA","75684","75708","73409","74443","74464","morph21_Oliver/Morris","0","1200","1","yes","1920","20"
"400","","50","50","1131","1131","black","no","xpyriment","legacy","legacy","0","203","NA","uniform","NA","NA","NA","1","undefined","1","0","1","1","1","0","1","1","1","NA","0","1","NA","NA","0","1","NA","1","0","1","NA","NA","NA","1","0","0","NA","NA","1","1","1","1","1","2","z","Wed Apr 10 14:42:32 2024","Executes Python code","yes","m21-ba-lexicalDecision.osexp","C:\Users\ekealey\Desktop","no","mono","no","18","no","white","no","yes","1080","legacy","1","1","C:/Users/ekealey/Desktop/subject-242.csv","xpyriment","Lentiform Loewenfeld","3.3.11","0","z","NA","NA","NA","NA","space","z","1062","NA","NA","NA","NA","70173","1062","2","legacy","1024","2","48000","-16","AB_m21","242","even","NW_S_COMP","ALTARIG","1678","80486","78254","NA","72019","NA","NA","NA","NA","NA","78754","NA","NA","NA","77753","NA","77726","1845","80886","NA","NA","NA","78795","1678","1832","NA","NA","79858","79883","77726","78754","78775","morph21_Oliver/Morris","1","2262","2","yes","1920","7"
"350","","66.66666666666667","66.66666666666667","1102.6666666666667","1102.6666666666667","black","no","xpyriment","legacy","legacy","0","202","NA","uniform","NA","NA","NA","1","undefined","1","0","2","2","2","0","2","2","2","NA","0","2","NA","NA","0","2","NA","2","0","2","NA","NA","NA","2","0","0","NA","NA","2","2","2","2","2","3","/","Wed Apr 10 14:42:32 2024","Executes Python code","yes","m21-ba-lexicalDecision.osexp","C:\Users\ekealey\Desktop","no","mono","no","18","no","white","no","yes","1080","legacy","2","2","C:/Users/ekealey/Desktop/subject-242.csv","xpyriment","Lentiform Loewenfeld","3.3.11","0","/","NA","NA","NA","NA","space","/","1046","NA","NA","NA","NA","70173","1046","2","legacy","1024","2","48000","-16","AB_m21","242","even","CW_L","PUNCHER","1678","86191","82470","84686","72019","NA","NA","NA","NA","NA","82970","NA","NA","NA","81970","NA","81940","1845","86541","NA","NA","NA","83011","1678","1832","NA","NA","84058","84081","81940","82970","82991","morph21_Oliver/Morris","2","3308","3","yes","1920","1"
"400","","75","75","1119.5","1119.5","black","no","xpyriment","legacy","legacy","0","202","NA","uniform","NA","NA","NA","1","undefined","1","0","3","3","3","0","3","3","3","NA","0","3","NA","NA","0","3","NA","3","0","3","NA","NA","NA","3","0","0","NA","NA","3","3","3","3","3","4","/","Wed Apr 10 14:42:32 2024","Executes Python code","yes","m21-ba-lexicalDecision.osexp","C:\Users\ekealey\Desktop","no","mono","no","18","no","white","no","yes","1080","legacy","3","3","C:/Users/ekealey/Desktop/subject-242.csv","xpyriment","Lentiform Loewenfeld","3.3.11","0","/","NA","NA","NA","NA","space","/","1170","NA","NA","NA","NA","70173","1170","2","legacy","1024","2","48000","-16","AB_m21","242","even","CW_L","WRONGLY","1678","90469","88131","84686","72019","NA","NA","NA","NA","NA","88631","NA","NA","NA","87631","NA","87604","1845","90869","NA","NA","NA","88672","1678","1832","NA","NA","89842","89865","87604","88631","88652","morph21_Oliver/Morris","3","4478","4","yes","1920","37"
"350","","80","80","1110.2","1110.2","black","no","xpyriment","legacy","legacy","0","206","NA","uniform","NA","NA","NA","1","undefined","1","0","4","4","4","0","4","4","4","NA","0","4","NA","NA","0","4","NA","4","0","4","NA","NA","NA","4","0","0","NA","NA","4","4","4","4","4","5","z","Wed Apr 10 14:42:32 2024","Executes Python code","yes","m21-ba-lexicalDecision.osexp","C:\Users\ekealey\Desktop","no","mono","no","18","no","white","no","yes","1080","legacy","4","4","C:/Users/ekealey/Desktop/subject-242.csv","xpyriment","Lentiform Loewenfeld","3.3.11","0","z","NA","NA","NA","NA","space","z","1073","NA","NA","NA","NA","70173","1073","2","legacy","1024","2","48000","-16","AB_m21","242","even","NW_L_SIMP","WIGISH","1678","94695","92451","84686","72019","NA","NA","NA","NA","NA","92952","NA","NA","NA","91951","NA","91923","1845","95045","NA","NA","NA","92992","1678","1832","NA","NA","94066","94091","91923","92951","92972","morph21_Oliver/Morris","4","5551","5","yes","1920","9"
"200","","66.66666666666667","66.66666666666667","1125.1666666666667","1125.1666666666667","black","no","xpyriment","legacy","legacy","0","201","NA","uniform","NA","NA","NA","0","undefined","0","0","5","5","5","0","5","5","5","NA","0","5","NA","NA","0","5","NA","5","0","5","NA","NA","NA","5","0","0","NA","NA","5","5","5","5","5","6","/","Wed Apr 10 14:42:32 2024","Executes Python code","yes","m21-ba-lexicalDecision.osexp","C:\Users\ekealey\Desktop","no","mono","no","18","no","white","no","yes","1080","legacy","5","5","C:/Users/ekealey/Desktop/subject-242.csv","xpyriment","Lentiform Loewenfeld","3.3.11","0","None","NA","NA","NA","NA","space","None","1200","NA","NA","NA","NA","70173","1200","2","legacy","1024","2","48000","-16","AB_m21","242","even","CW_S","THRUSTER","1678","100497","96625","98993","72019","NA","NA","NA","NA","NA","97125","NA","NA","NA","96125","NA","96095","1845","100697","NA","NA","NA","97166","1678","1832","NA","NA","98366","98389","96095","97125","97145","morph21_Oliver/Morris","4","6751","6","yes","1920","24"
"400","","57.142857142857146","57.142857142857146","1135.857142857143","1135.857142857143","black","no","xpyriment","legacy","legacy","0","205","NA","uniform","NA","NA","NA","0","undefined","0","0","6","6","6","0","6","6","6","NA","0","6","NA","NA","0","6","NA","6","0","6","NA","NA","NA","6","0","0","NA","NA","6","6","6","6","6","7","z","Wed Apr 10 14:42:32 2024","Executes Python code","yes","m21-ba-lexicalDecision.osexp","C:\Users\ekealey\Desktop","no","mono","no","18","no","white","no","yes","1080","legacy","6","6","C:/Users/ekealey/Desktop/subject-242.csv","xpyriment","Lentiform Loewenfeld","3.3.11","0","None","NA","NA","NA","NA","space","None","1200","NA","NA","NA","NA","70173","1200","2","legacy","1024","2","48000","-16","AB_m21","242","even","NW_S_SIMP","ADVERTISELY","1678","104667","102299","98993","72019","NA","NA","NA","NA","NA","102800","NA","NA","NA","101798","NA","101769","1845","105067","NA","NA","NA","102841","1678","1832","NA","NA","104041","104064","101769","102800","102821","morph21_Oliver/Morris","4","7951","7","yes","1920","25"
"250","","62.5","62.5","1113.375","1113.375","black","no","xpyriment","legacy","legacy","0","201","NA","uniform","NA","NA","NA","1","undefined","1","0","7","7","7","0","7","7","7","NA","0","7","NA","NA","0","7","NA","7","0","7","NA","NA","NA","7","0","0","NA","NA","7","7","7","7","7","8","/","Wed Apr 10 14:42:32 2024","Executes Python code","yes","m21-ba-lexicalDecision.osexp","C:\Users\ekealey\Desktop","no","mono","no","18","no","white","no","yes","1080","legacy","7","7","C:/Users/ekealey/Desktop/subject-242.csv","xpyriment","Lentiform Loewenfeld","3.3.11","0","/","NA","NA","NA","NA","space","/","956","NA","NA","NA","NA","70173","956","2","legacy","1024","2","48000","-16","AB_m21","242","even","CW_S","COSTLY","1678","108758","106634","98993","72019","NA","NA","NA","NA","NA","107134","NA","NA","NA","106134","NA","106108","1845","109008","NA","NA","NA","107174","1678","1832","NA","NA","108130","108155","106108","107134","107154","morph21_Oliver/Morris","5","8907","8","yes","1920","36"
"350","","55.55555555555556","55.55555555555556","1123","1123","black","no","xpyriment","legacy","legacy","0","202","NA","uniform","NA","NA","NA","0","undefined","0","0","8","8","8","0","8","8","8","NA","0","8","NA","NA","0","8","NA","8","0","8","NA","NA","NA","8","0","0","NA","NA","8","8","8","8","8","9","/","Wed Apr 10 14:42:32 2024","Executes Python code","yes","m21-ba-lexicalDecision.osexp","C:\Users\ekealey\Desktop","no","mono","no","18","no","white","no","yes","1080","legacy","8","8","C:/Users/ekealey/Desktop/subject-242.csv","xpyriment","Lentiform Loewenfeld","3.3.11","0","None","NA","NA","NA","NA","space","None","1200","NA","NA","NA","NA","70173","1200","2","legacy","1024","2","48000","-16","AB_m21","242","even","CW_L","GUARDING","1678","114459","110589","112955","72019","NA","NA","NA","NA","NA","111089","NA","NA","NA","110088","NA","110060","1845","114810","NA","NA","NA","111129","1678","1832","NA","NA","112329","112352","110060","111089","111109","morph21_Oliver/Morris","5","10107","9","yes","1920","26"
"250","","60","60","1108.1","1108.1","black","no","xpyriment","legacy","legacy","0","204","NA","uniform","NA","NA","NA","1","undefined","1","0","9","9","9","0","9","9","9","NA","0","9","NA","NA","0","9","NA","9","0","9","NA","NA","NA","9","0","0","NA","NA","9","9","9","9","9","10","z","Wed Apr 10 14:42:32 2024","Executes Python code","yes","m21-ba-lexicalDecision.osexp","C:\Users\ekealey\Desktop","no","mono","no","18","no","white","no","yes","1080","legacy","9","9","C:/Users/ekealey/Desktop/subject-242.csv","xpyriment","Lentiform Loewenfeld","3.3.11","0","z","NA","NA","NA","NA","space","z","974","NA","NA","NA","NA","70173","974","2","legacy","1024","2","48000","-16","AB_m21","242","even","NW_L_COMP","BREAKIDY","1678","118542","116397","112955","72019","NA","NA","NA","NA","NA","116897","NA","NA","NA","115897","NA","115868","1845","118792","NA","NA","NA","116939","1678","1832","NA","NA","117914","117937","115868","116897","116919","morph21_Oliver/Morris","6","11081","10","yes","1920","23"
"250","","54.54545454545455","54.54545454545455","1116.4545454545455","1116.4545454545455","black","no","xpyriment","legacy","legacy","0","202","NA","uniform","NA","NA","NA","0","undefined","0","0","10","10","10","0","10","10","10","NA","0","10","NA","NA","0","10","NA","10","0","10","NA","NA","NA","10","0","0","NA","NA","10","10","10","10","10","11","/","Wed Apr 10 14:42:32 2024","Executes Python code","yes","m21-ba-lexicalDecision.osexp","C:\Users\ekealey\Desktop","no","mono","no","18","no","white","no","yes","1080","legacy","10","10","C:/Users/ekealey/Desktop/subject-242.csv","xpyriment","Lentiform Loewenfeld","3.3.11","0","None","NA","NA","NA","NA","space","None","1200","NA","NA","NA","NA","70173","1200","2","legacy","1024","2","48000","-16","AB_m21","242","even","CW_L","LAUGHING","1678","122747","120377","112955","72019","NA","NA","NA","NA","NA","120878","NA","NA","NA","119875","NA","119849","1845","122997","NA","NA","NA","120919","1678","1832","NA","NA","122119","122144","119849","120878","120898","morph21_Oliver/Morris","6","12281","11","yes","1920","27"
"300","","50","50","1123.4166666666667","1123.4166666666667","black","no","xpyriment","legacy","legacy","0","205","NA","uniform","NA","NA","NA","0","undefined","0","0","11","11","11","0","11","11","11","NA","0","11","NA","NA","0","11","NA","11","0","11","NA","NA","NA","11","0","0","NA","NA","11","11","11","11","11","12","z","Wed Apr 10 14:42:32 2024","Executes Python code","yes","m21-ba-lexicalDecision.osexp","C:\Users\ekealey\Desktop","no","mono","no","18","no","white","no","yes","1080","legacy","11","11","C:/Users/ekealey/Desktop/subject-242.csv","xpyriment","Lentiform Loewenfeld","3.3.11","0","None","NA","NA","NA","NA","space","None","1200","NA","NA","NA","NA","70173","1200","2","legacy","1024","2","48000","-16","AB_m21","242","even","NW_S_SIMP","WARNORY","1678","128484","124607","126979","72019","NA","NA","NA","NA","NA","125109","NA","NA","NA","124105","NA","124075","1845","128784","NA","NA","NA","125150","1678","1832","NA","NA","126350","126375","124075","125109","125129","morph21_Oliver/Morris","6","13481","12","yes","1920","12"
"300","","46.15384615384615","46.15384615384615","1129.3076923076924","1129.3076923076924","black","no","xpyriment","legacy","legacy","0","204","NA","uniform","NA","NA","NA","0","undefined","0","0","12","12","12","0","12","12","12","NA","0","12","NA","NA","0","12","NA","12","0","12","NA","NA","NA","12","0","0","NA","NA","12","12","12","12","12","13","z","Wed Apr 10 14:42:32 2024","Executes Python code","yes","m21-ba-lexicalDecision.osexp","C:\Users\ekealey\Desktop","no","mono","no","18","no","white","no","yes","1080","legacy","12","12","C:/Users/ekealey/Desktop/subject-242.csv","xpyriment","Lentiform Loewenfeld","3.3.11","0","None","NA","NA","NA","NA","space","None","1200","NA","NA","NA","NA","70173","1200","2","legacy","1024","2","48000","-16","AB_m21","242","even","NW_L_COMP","KINGILM","1678","132748","130380","126979","72019","NA","NA","NA","NA","NA","130880","NA","NA","NA","129879","NA","129852","1845","133048","NA","NA","NA","130921","1678","1832","NA","NA","132121","132145","129852","130880","130901","morph21_Oliver/Morris","6","14681","13","yes","1920","19"
"300","","42.857142857142854","42.857142857142854","1134.357142857143","1134.357142857143","black","no","xpyriment","legacy","legacy","0","208","NA","uniform","NA","NA","NA","0","undefined","0","0","13","13","13","0","13","13","13","NA","0","13","NA","NA","0","13","NA","13","0","13","NA","NA","NA","13","0","0","NA","NA","13","13","13","13","13","14","z","Wed Apr 10 14:42:32 2024","Executes Python code","yes","m21-ba-lexicalDecision.osexp","C:\Users\ekealey\Desktop","no","mono","no","18","no","white","no","yes","1080","legacy","13","13","C:/Users/ekealey/Desktop/subject-242.csv","xpyriment","Lentiform Loewenfeld","3.3.11","0","None","NA","NA","NA","NA","space","None","1200","NA","NA","NA","NA","70173","1200","2","legacy","1024","2","48000","-16","AB_m21","242","even","FILL_NW","DULKS","1678","136977","134606","126979","72019","NA","NA","NA","NA","NA","135106","NA","NA","NA","134105","NA","134080","1845","137277","NA","NA","NA","135147","1678","1832","NA","NA","136347","136372","134080","135106","135127","morph21_Oliver/Morris","6","15881","14","yes","1920","18"
"200","","46.666666666666664","46.666666666666664","1131.0666666666666","1131.0666666666666","black","no","xpyriment","legacy","legacy","0","203","NA","uniform","NA","NA","NA","1","undefined","1","0","14","14","14","0","14","14","14","NA","0","14","NA","NA","0","14","NA","14","0","14","NA","NA","NA","14","0","0","NA","NA","14","14","14","14","14","15","z","Wed Apr 10 14:42:32 2024","Executes Python code","yes","m21-ba-lexicalDecision.osexp","C:\Users\ekealey\Desktop","no","mono","no","18","no","white","no","yes","1080","legacy","14","14","C:/Users/ekealey/Desktop/subject-242.csv","xpyriment","Lentiform Loewenfeld","3.3.11","0","z","NA","NA","NA","NA","space","z","1085","NA","NA","NA","NA","70173","1085","2","legacy","1024","2","48000","-16","AB_m21","242","even","NW_S_COMP","ELMILT","1678","142623","138864","141118","72019","NA","NA","NA","NA","NA","139364","NA","NA","NA","138364","NA","138334","1845","142823","NA","NA","NA","139405","1678","1832","NA","NA","140490","140515","138334","139364","139385","morph21_Oliver/Morris","7","16966","15","yes","1920","10"
"300","","50","50","1122.75","1122.75","black","no","xpyriment","legacy","legacy","0","204","NA","uniform","NA","NA","NA","1","undefined","1","0","15","15","15","0","15","15","15","NA","0","15","NA","NA","0","15","NA","15","0","15","NA","NA","NA","15","0","0","NA","NA","15","15","15","15","15","16","z","Wed Apr 10 14:42:32 2024","Executes Python code","yes","m21-ba-lexicalDecision.osexp","C:\Users\ekealey\Desktop","no","mono","no","18","no","white","no","yes","1080","legacy","15","15","C:/Users/ekealey/Desktop/subject-242.csv","xpyriment","Lentiform Loewenfeld","3.3.11","0","z","NA","NA","NA","NA","space","z","998","NA","NA","NA","NA","70173","998","2","legacy","1024","2","48000","-16","AB_m21","242","even","NW_L_COMP","BINDIG","1678","146564","144399","141118","72019","NA","NA","NA","NA","NA","144899","NA","NA","NA","143899","NA","143866","1845","146864","NA","NA","NA","144939","1678","1832","NA","NA","145938","145961","143866","144899","144919","morph21_Oliver/Morris","8","17964","16","yes","1920","22"
"300","","52.94117647058823","52.94117647058823","1099.4117647058824","1099.4117647058824","black","no","xpyriment","legacy","legacy","0","202","NA","uniform","NA","NA","NA","1","undefined","1","0","16","16","16","0","16","16","16","NA","0","16","NA","NA","0","16","NA","16","0","16","NA","NA","NA","16","0","0","NA","NA","16","16","16","16","16","17","/","Wed Apr 10 14:42:32 2024","Executes Python code","yes","m21-ba-lexicalDecision.osexp","C:\Users\ekealey\Desktop","no","mono","no","18","no","white","no","yes","1080","legacy","16","16","C:/Users/ekealey/Desktop/subject-242.csv","xpyriment","Lentiform Loewenfeld","3.3.11","0","/","NA","NA","NA","NA","space","/","726","NA","NA","NA","NA","70173","726","2","legacy","1024","2","48000","-16","AB_m21","242","even","CW_L","MADNESS","1678","150311","148413","141118","72019","NA","NA","NA","NA","NA","148915","NA","NA","NA","147913","NA","147886","1845","150611","NA","NA","NA","148956","1678","1832","NA","NA","149682","149707","147886","148915","148935","morph21_Oliver/Morris","9","18690","17","yes","1920","41"
"300","","50","50","1105","1105","black","no","xpyriment","legacy","legacy","0","205","NA","uniform","NA","NA","NA","0","undefined","0","0","17","17","17","0","17","17","17","NA","0","17","NA","NA","0","17","NA","17","0","17","NA","NA","NA","17","0","0","NA","NA","17","17","17","17","17","18","z","Wed Apr 10 14:42:32 2024","Executes Python code","yes","m21-ba-lexicalDecision.osexp","C:\Users\ekealey\Desktop","no","mono","no","18","no","white","no","yes","1080","legacy","17","17","C:/Users/ekealey/Desktop/subject-242.csv","xpyriment","Lentiform Loewenfeld","3.3.11","0","None","NA","NA","NA","NA","space","None","1200","NA","NA","NA","NA","70173","1200","2","legacy","1024","2","48000","-16","AB_m21","242","even","NW_S_SIMP","BOLTOUS","1678","156090","152214","154585","72019","NA","NA","NA","NA","NA","152715","NA","NA","NA","151714","NA","151687","1845","156390","NA","NA","NA","152757","1678","1832","NA","NA","153957","153982","151687","152715","152736","morph21_Oliver/Morris","9","19890","18","yes","1920","13"
"200","","52.63157894736842","52.63157894736842","1100.4736842105262","1100.4736842105262","black","no","xpyriment","legacy","legacy","0","201","NA","uniform","NA","NA","NA","1","undefined","1","0","18","18","18","0","18","18","18","NA","0","18","NA","NA","0","18","NA","18","0","18","NA","NA","NA","18","0","0","NA","NA","18","18","18","18","18","19","/","Wed Apr 10 14:42:32 2024","Executes Python code","yes","m21-ba-lexicalDecision.osexp","C:\Users\ekealey\Desktop","no","mono","no","18","no","white","no","yes","1080","legacy","18","18","C:/Users/ekealey/Desktop/subject-242.csv","xpyriment","Lentiform Loewenfeld","3.3.11","0","/","NA","NA","NA","NA","space","/","1019","NA","NA","NA","NA","70173","1019","2","legacy","1024","2","48000","-16","AB_m21","242","even","CW_S","LISTENER","1678","160176","157986","154585","72019","NA","NA","NA","NA","NA","158486","NA","NA","NA","157485","NA","157458","1845","160376","NA","NA","NA","158527","1678","1832","NA","NA","159546","159571","157458","158486","158507","morph21_Oliver/Morris","10","20909","19","yes","1920","18"
"350","","55","55","1084.3","1084.3","black","no","xpyriment","legacy","legacy","0","207","NA","uniform","NA","NA","NA","1","undefined","1","0","19","19","19","0","19","19","19","NA","0","19","NA","NA","0","19","NA","19","0","19","NA","NA","NA","19","0","0","NA","NA","19","19","19","19","19","20","/","Wed Apr 10 14:42:32 2024","Executes Python code","yes","m21-ba-lexicalDecision.osexp","C:\Users\ekealey\Desktop","no","mono","no","18","no","white","no","yes","1080","legacy","19","19","C:/Users/ekealey/Desktop/subject-242.csv","xpyriment","Lentiform Loewenfeld","3.3.11","0","/","NA","NA","NA","NA","space","/","777","NA","NA","NA","NA","70173","777","2","legacy","1024","2","48000","-16","AB_m21","242","even","FILL_W","LEAK","1678","163902","161955","154585","72019","NA","NA","NA","NA","NA","162455","NA","NA","NA","161455","NA","161427","1845","164252","NA","NA","NA","162496","1678","1832","NA","NA","163274","163298","161427","162455","162476","morph21_Oliver/Morris","11","21686","20","yes","1920","9"
"400","","57.142857142857146","57.142857142857146","1088.904761904762","1088.904761904762","black","no","xpyriment","legacy","legacy","0","201","NA","uniform","NA","NA","NA","1","undefined","1","0","20","20","20","0","20","20","20","NA","0","20","NA","NA","0","20","NA","20","0","20","NA","NA","NA","20","0","0","NA","NA","20","20","20","20","20","21","/","Wed Apr 10 14:42:32 2024","Executes Python code","yes","m21-ba-lexicalDecision.osexp","C:\Users\ekealey\Desktop","no","mono","no","18","no","white","no","yes","1080","legacy","20","20","C:/Users/ekealey/Desktop/subject-242.csv","xpyriment","Lentiform Loewenfeld","3.3.11","0","/","NA","NA","NA","NA","space","/","1181","NA","NA","NA","NA","70173","1181","2","legacy","1024","2","48000","-16","AB_m21","242","even","CW_S","RAIDER","1678","169694","165839","168190","72019","NA","NA","NA","NA","NA","166340","NA","NA","NA","165337","NA","165313","1845","170095","NA","NA","NA","166381","1678","1832","NA","NA","167563","167587","165313","166340","166360","morph21_Oliver/Morris","12","22867","21","yes","1920","12"
"400","","59.09090909090909","59.09090909090909","1071.9545454545455","1071.9545454545455","black","no","xpyriment","legacy","legacy","0","207","NA","uniform","NA","NA","NA","1","undefined","1","0","21","21","21","0","21","21","21","NA","0","21","NA","NA","0","21","NA","21","0","21","NA","NA","NA","21","0","0","NA","NA","21","21","21","21","21","22","/","Wed Apr 10 14:42:32 2024","Executes Python code","yes","m21-ba-lexicalDecision.osexp","C:\Users\ekealey\Desktop","no","mono","no","18","no","white","no","yes","1080","legacy","21","21","C:/Users/ekealey/Desktop/subject-242.csv","xpyriment","Lentiform Loewenfeld","3.3.11","0","/","NA","NA","NA","NA","space","/","716","NA","NA","NA","NA","70173","716","2","legacy","1024","2","48000","-16","AB_m21","242","even","FILL_W","CRUNCH","1678","173575","171688","168190","72019","NA","NA","NA","NA","NA","172188","NA","NA","NA","171186","NA","171158","1845","173975","NA","NA","NA","172229","1678","1832","NA","NA","172946","172970","171158","172188","172209","morph21_Oliver/Morris","13","23583","22","yes","1920","20"
"350","","60.869565217391305","60.869565217391305","1057.608695652174","1057.608695652174","black","no","xpyriment","legacy","legacy","0","207","NA","uniform","NA","NA","NA","1","undefined","1","0","22","22","22","0","22","22","22","NA","0","22","NA","NA","0","22","NA","22","0","22","NA","NA","NA","22","0","0","NA","NA","22","22","22","22","22","23","/","Wed Apr 10 14:42:32 2024","Executes Python code","yes","m21-ba-lexicalDecision.osexp","C:\Users\ekealey\Desktop","no","mono","no","18","no","white","no","yes","1080","legacy","22","22","C:/Users/ekealey/Desktop/subject-242.csv","xpyriment","Lentiform Loewenfeld","3.3.11","0","/","NA","NA","NA","NA","space","/","742","NA","NA","NA","NA","70173","742","2","legacy","1024","2","48000","-16","AB_m21","242","even","FILL_W","FAINT","1678","177454","175540","168190","72019","NA","NA","NA","NA","NA","176042","NA","NA","NA","175038","NA","175014","1845","177804","NA","NA","NA","176083","1678","1832","NA","NA","176825","176850","175014","176042","176063","morph21_Oliver/Morris","14","24325","23","yes","1920","31"
"400","","62.5","62.5","1059.2916666666667","1059.2916666666667","black","no","xpyriment","legacy","legacy","0","203","NA","uniform","NA","NA","NA","1","undefined","1","0","23","23","23","0","23","23","23","NA","0","23","NA","NA","0","23","NA","23","0","23","NA","NA","NA","23","0","0","NA","NA","23","23","23","23","23","24","z","Wed Apr 10 14:42:32 2024","Executes Python code","yes","m21-ba-lexicalDecision.osexp","C:\Users\ekealey\Desktop","no","mono","no","18","no","white","no","yes","1080","legacy","23","23","C:/Users/ekealey/Desktop/subject-242.csv","xpyriment","Lentiform Loewenfeld","3.3.11","0","z","NA","NA","NA","NA","space","z","1098","NA","NA","NA","NA","70173","1098","2","legacy","1024","2","48000","-16","AB_m21","242","even","NW_S_COMP","ARIDILM","1678","183157","179386","181653","72019","NA","NA","NA","NA","NA","179886","NA","NA","NA","178886","NA","178858","1845","183557","NA","NA","NA","179927","1678","1832","NA","NA","181026","181050","178858","179886","179907","morph21_Oliver/Morris","15","25423","24","yes","1920","9"
"400","","64","64","1048.32","1048.32","black","no","xpyriment","legacy","legacy","0","202","NA","uniform","NA","NA","NA","1","undefined","1","0","24","24","24","0","24","24","24","NA","0","24","NA","NA","0","24","NA","24","0","24","NA","NA","NA","24","0","0","NA","NA","24","24","24","24","24","25","/","Wed Apr 10 14:42:32 2024","Executes Python code","yes","m21-ba-lexicalDecision.osexp","C:\Users\ekealey\Desktop","no","mono","no","18","no","white","no","yes","1080","legacy","24","24","C:/Users/ekealey/Desktop/subject-242.csv","xpyriment","Lentiform Loewenfeld","3.3.11","0","/","NA","NA","NA","NA","space","/","785","NA","NA","NA","NA","70173","785","2","legacy","1024","2","48000","-16","AB_m21","242","even","CW_L","CLEANER","1678","187111","185155","181653","72019","NA","NA","NA","NA","NA","185655","NA","NA","NA","184655","NA","184623","1845","187511","NA","NA","NA","185696","1678","1832","NA","NA","186482","186506","184623","185655","185675","morph21_Oliver/Morris","16","26208","25","yes","1920","15"
"300","","61.53846153846154","61.53846153846154","1054.1538461538462","1054.1538461538462","black","no","xpyriment","legacy","legacy","0","205","NA","uniform","NA","NA","NA","0","undefined","0","0","25","25","25","0","25","25","25","NA","0","25","NA","NA","0","25","NA","25","0","25","NA","NA","NA","25","0","0","NA","NA","25","25","25","25","25","26","z","Wed Apr 10 14:42:32 2024","Executes Python code","yes","m21-ba-lexicalDecision.osexp","C:\Users\ekealey\Desktop","no","mono","no","18","no","white","no","yes","1080","legacy","25","25","C:/Users/ekealey/Desktop/subject-242.csv","xpyriment","Lentiform Loewenfeld","3.3.11","0","None","NA","NA","NA","NA","space","None","1200","NA","NA","NA","NA","70173","1200","2","legacy","1024","2","48000","-16","AB_m21","242","even","NW_S_SIMP","HEIRIC","1678","191483","189112","181653","72019","NA","NA","NA","NA","NA","189613","NA","NA","NA","188610","NA","188585","1845","191783","NA","NA","NA","189653","1678","1832","NA","NA","190853","190879","188585","189613","189633","morph21_Oliver/Morris","16","27408","26","yes","1920","3"
"250","","62.96296296296296","62.96296296296296","1045.6296296296296","1045.6296296296296","black","no","xpyriment","legacy","legacy","0","207","NA","uniform","NA","NA","NA","1","undefined","1","0","26","26","26","0","26","26","26","NA","0","26","NA","NA","0","26","NA","26","0","26","NA","NA","NA","26","0","0","NA","NA","26","26","26","26","26","27","/","Wed Apr 10 14:42:32 2024","Executes Python code","yes","m21-ba-lexicalDecision.osexp","C:\Users\ekealey\Desktop","no","mono","no","18","no","white","no","yes","1080","legacy","26","26","C:/Users/ekealey/Desktop/subject-242.csv","xpyriment","Lentiform Loewenfeld","3.3.11","0","/","NA","NA","NA","NA","space","/","824","NA","NA","NA","NA","70173","824","2","legacy","1024","2","48000","-16","AB_m21","242","even","FILL_W","SPLICE","1678","196872","193371","195365","72019","NA","NA","NA","NA","NA","193874","NA","NA","NA","192869","NA","192842","1845","197122","NA","NA","NA","193914","1678","1832","NA","NA","194739","194762","192842","193874","193894","morph21_Oliver/Morris","17","28232","27","yes","1920","22"
"350","","64.28571428571429","64.28571428571429","1045.2142857142858","1045.2142857142858","black","no","xpyriment","legacy","legacy","0","202","NA","uniform","NA","NA","NA","1","undefined","1","0","27","27","27","0","27","27","27","NA","0","27","NA","NA","0","27","NA","27","0","27","NA","NA","NA","27","0","0","NA","NA","27","27","27","27","27","28","/","Wed Apr 10 14:42:32 2024","Executes Python code","yes","m21-ba-lexicalDecision.osexp","C:\Users\ekealey\Desktop","no","mono","no","18","no","white","no","yes","1080","legacy","27","27","C:/Users/ekealey/Desktop/subject-242.csv","xpyriment","Lentiform Loewenfeld","3.3.11","0","/","NA","NA","NA","NA","space","/","1034","NA","NA","NA","NA","70173","1034","2","legacy","1024","2","48000","-16","AB_m21","242","even","CW_L","RENTER","1678","200916","198714","195365","72019","NA","NA","NA","NA","NA","199214","NA","NA","NA","198214","NA","198187","1845","201266","NA","NA","NA","199255","1678","1832","NA","NA","200290","200313","198187","199214","199235","morph21_Oliver/Morris","18","29266","28","yes","1920","9"
"200","","65.51724137931035","65.51724137931035","1032.6206896551723","1032.6206896551723","black","no","xpyriment","legacy","legacy","0","207","NA","uniform","NA","NA","NA","1","undefined","1","0","28","28","28","0","28","28","28","NA","0","28","NA","NA","0","28","NA","28","0","28","NA","NA","NA","28","0","0","NA","NA","28","28","28","28","28","29","/","Wed Apr 10 14:42:32 2024","Executes Python code","yes","m21-ba-lexicalDecision.osexp","C:\Users\ekealey\Desktop","no","mono","no","18","no","white","no","yes","1080","legacy","28","28","C:/Users/ekealey/Desktop/subject-242.csv","xpyriment","Lentiform Loewenfeld","3.3.11","0","/","NA","NA","NA","NA","space","/","680","NA","NA","NA","NA","70173","680","2","legacy","1024","2","48000","-16","AB_m21","242","even","FILL_W","SAVE","1678","204693","202843","195365","72019","NA","NA","NA","NA","NA","203345","NA","NA","NA","202340","NA","202316","1845","204893","NA","NA","NA","203385","1678","1832","NA","NA","204066","204090","202316","203344","203365","morph21_Oliver/Morris","19","29946","29","yes","1920","46"
"400","","63.333333333333336","63.333333333333336","1038.2","1038.2","black","no","xpyriment","legacy","legacy","0","205","NA","uniform","NA","NA","NA","0","undefined","0","0","29","29","29","0","29","29","29","NA","0","29","NA","NA","0","29","NA","29","0","29","NA","NA","NA","29","0","0","NA","NA","29","29","29","29","29","30","z","Wed Apr 10 14:42:32 2024","Executes Python code","yes","m21-ba-lexicalDecision.osexp","C:\Users\ekealey\Desktop","no","mono","no","18","no","white","no","yes","1080","legacy","29","29","C:/Users/ekealey/Desktop/subject-242.csv","xpyriment","Lentiform Loewenfeld","3.3.11","0","None","NA","NA","NA","NA","space","None","1200","NA","NA","NA","NA","70173","1200","2","legacy","1024","2","48000","-16","AB_m21","242","even","NW_S_SIMP","AIDIC","1678","210353","206477","208848","72019","NA","NA","NA","NA","NA","206978","NA","NA","NA","205975","NA","205949","1845","210753","NA","NA","NA","207019","1678","1832","NA","NA","208219","208244","205949","206978","206999","morph21_Oliver/Morris","19","31146","30","yes","1920","4"
"250","","64.51612903225806","64.51612903225806","1036.3870967741937","1036.3870967741937","black","no","xpyriment","legacy","legacy","0","201","NA","uniform","NA","NA","NA","1","undefined","1","0","30","30","30","0","30","30","30","NA","0","30","NA","NA","0","30","NA","30","0","30","NA","NA","NA","30","0","0","NA","NA","30","30","30","30","30","31","/","Wed Apr 10 14:42:32 2024","Executes Python code","yes","m21-ba-lexicalDecision.osexp","C:\Users\ekealey\Desktop","no","mono","no","18","no","white","no","yes","1080","legacy","30","30","C:/Users/ekealey/Desktop/subject-242.csv","xpyriment","Lentiform Loewenfeld","3.3.11","0","/","NA","NA","NA","NA","space","/","982","NA","NA","NA","NA","70173","982","2","legacy","1024","2","48000","-16","AB_m21","242","even","CW_S","MILDNESS","1678","214503","212352","208848","72019","NA","NA","NA","NA","NA","212852","NA","NA","NA","211852","NA","211824","1845","214753","NA","NA","NA","212892","1678","1832","NA","NA","213874","213899","211824","212852","212872","morph21_Oliver/Morris","20","32128","31","yes","1920","42"
"400","","65.625","65.625","1025.9375","1025.9375","black","no","xpyriment","legacy","legacy","0","201","NA","uniform","NA","NA","NA","1","undefined","1","0","31","31","31","0","31","31","31","NA","0","31","NA","NA","0","31","NA","31","0","31","NA","NA","NA","31","0","0","NA","NA","31","31","31","31","31","32","/","Wed Apr 10 14:42:32 2024","Executes Python code","yes","m21-ba-lexicalDecision.osexp","C:\Users\ekealey\Desktop","no","mono","no","18","no","white","no","yes","1080","legacy","31","31","C:/Users/ekealey/Desktop/subject-242.csv","xpyriment","Lentiform Loewenfeld","3.3.11","0","/","NA","NA","NA","NA","space","/","702","NA","NA","NA","NA","70173","702","2","legacy","1024","2","48000","-16","AB_m21","242","even","CW_S","WIDOWED","1678","218181","216309","208848","72019","NA","NA","NA","NA","NA","216810","NA","NA","NA","215809","NA","215783","1845","218581","NA","NA","NA","216851","1678","1832","NA","NA","217553","217578","215783","216810","216831","morph21_Oliver/Morris","21","32830","32","yes","1920","7"
"350","","63.63636363636363","63.63636363636363","1031.2121212121212","1031.2121212121212","black","no","xpyriment","legacy","legacy","0","205","NA","uniform","NA","NA","NA","0","undefined","0","0","32","32","32","0","32","32","32","NA","0","32","NA","NA","0","32","NA","32","0","32","NA","NA","NA","32","0","0","NA","NA","32","32","32","32","32","33","z","Wed Apr 10 14:42:32 2024","Executes Python code","yes","m21-ba-lexicalDecision.osexp","C:\Users\ekealey\Desktop","no","mono","no","18","no","white","no","yes","1080","legacy","32","32","C:/Users/ekealey/Desktop/subject-242.csv","xpyriment","Lentiform Loewenfeld","3.3.11","0","None","NA","NA","NA","NA","space","None","1200","NA","NA","NA","NA","70173","1200","2","legacy","1024","2","48000","-16","AB_m21","242","even","NW_S_SIMP","ACREMENT","1678","224085","220208","222579","72019","NA","NA","NA","NA","NA","220709","NA","NA","NA","219707","NA","219681","1845","224435","NA","NA","NA","220750","1678","1832","NA","NA","221950","221974","219681","220709","220730","morph21_Oliver/Morris","21","34030","33","yes","1920","16"
"300","","61.76470588235294","61.76470588235294","1036.1764705882354","1036.1764705882354","black","no","xpyriment","legacy","legacy","0","208","NA","uniform","NA","NA","NA","0","undefined","0","0","33","33","33","0","33","33","33","NA","0","33","NA","NA","0","33","NA","33","0","33","NA","NA","NA","33","0","0","NA","NA","33","33","33","33","33","34","z","Wed Apr 10 14:42:32 2024","Executes Python code","yes","m21-ba-lexicalDecision.osexp","C:\Users\ekealey\Desktop","no","mono","no","18","no","white","no","yes","1080","legacy","33","33","C:/Users/ekealey/Desktop/subject-242.csv","xpyriment","Lentiform Loewenfeld","3.3.11","0","None","NA","NA","NA","NA","space","None","1200","NA","NA","NA","NA","70173","1200","2","legacy","1024","2","48000","-16","AB_m21","242","even","FILL_NW","HEEM","1678","228384","226016","222579","72019","NA","NA","NA","NA","NA","226517","NA","NA","NA","225515","NA","225488","1845","228684","NA","NA","NA","226558","1678","1832","NA","NA","227758","227781","225488","226517","226537","morph21_Oliver/Morris","21","35230","34","yes","1920","27"
"250","","62.857142857142854","62.857142857142854","1028.1714285714286","1028.1714285714286","black","no","xpyriment","legacy","legacy","0","201","NA","uniform","NA","NA","NA","1","undefined","1","0","34","34","34","0","34","34","34","NA","0","34","NA","NA","0","34","NA","34","0","34","NA","NA","NA","34","0","0","NA","NA","34","34","34","34","34","35","/","Wed Apr 10 14:42:32 2024","Executes Python code","yes","m21-ba-lexicalDecision.osexp","C:\Users\ekealey\Desktop","no","mono","no","18","no","white","no","yes","1080","legacy","34","34","C:/Users/ekealey/Desktop/subject-242.csv","xpyriment","Lentiform Loewenfeld","3.3.11","0","/","NA","NA","NA","NA","space","/","756","NA","NA","NA","NA","70173","756","2","legacy","1024","2","48000","-16","AB_m21","242","even","CW_S","PLANNER","1678","232187","230265","222579","72019","NA","NA","NA","NA","NA","230765","NA","NA","NA","229765","NA","229739","1845","232437","NA","NA","NA","230805","1678","1832","NA","NA","231561","231585","229739","230765","230785","morph21_Oliver/Morris","22","35986","35","yes","1920","22"
"350","","63.888888888888886","63.888888888888886","1021.8888888888889","1021.8888888888889","black","no","xpyriment","legacy","legacy","0","201","NA","uniform","NA","NA","NA","1","undefined","1","0","35","35","35","0","35","35","35","NA","0","35","NA","NA","0","35","NA","35","0","35","NA","NA","NA","35","0","0","NA","NA","35","35","35","35","35","36","/","Wed Apr 10 14:42:32 2024","Executes Python code","yes","m21-ba-lexicalDecision.osexp","C:\Users\ekealey\Desktop","no","mono","no","18","no","white","no","yes","1080","legacy","35","35","C:/Users/ekealey/Desktop/subject-242.csv","xpyriment","Lentiform Loewenfeld","3.3.11","0","/","NA","NA","NA","NA","space","/","802","NA","NA","NA","NA","70173","802","2","legacy","1024","2","48000","-16","AB_m21","242","even","CW_S","CHILLY","1678","237485","234009","235981","72019","NA","NA","NA","NA","NA","234511","NA","NA","NA","233508","NA","233482","1845","237835","NA","NA","NA","234551","1678","1832","NA","NA","235353","235377","233482","234511","234531","morph21_Oliver/Morris","23","36788","36","yes","1920","48"
"250","","64.86486486486487","64.86486486486487","1014.6216216216217","1014.6216216216217","black","no","xpyriment","legacy","legacy","0","202","NA","uniform","NA","NA","NA","1","undefined","1","0","36","36","36","0","36","36","36","NA","0","36","NA","NA","0","36","NA","36","0","36","NA","NA","NA","36","0","0","NA","NA","36","36","36","36","36","37","/","Wed Apr 10 14:42:32 2024","Executes Python code","yes","m21-ba-lexicalDecision.osexp","C:\Users\ekealey\Desktop","no","mono","no","18","no","white","no","yes","1080","legacy","36","36","C:/Users/ekealey/Desktop/subject-242.csv","xpyriment","Lentiform Loewenfeld","3.3.11","0","/","NA","NA","NA","NA","space","/","753","NA","NA","NA","NA","70173","753","2","legacy","1024","2","48000","-16","AB_m21","242","even","CW_L","DEAFNESS","1678","241333","239410","235981","72019","NA","NA","NA","NA","NA","239912","NA","NA","NA","238908","NA","238880","1845","241584","NA","NA","NA","239952","1678","1832","NA","NA","240706","240730","238880","239911","239932","morph21_Oliver/Morris","24","37541","37","yes","1920","39"
"350","","65.78947368421052","65.78947368421052","1004.921052631579","1004.921052631579","black","no","xpyriment","legacy","legacy","0","207","NA","uniform","NA","NA","NA","1","undefined","1","0","37","37","37","0","37","37","37","NA","0","37","NA","NA","0","37","NA","37","0","37","NA","NA","NA","37","0","0","NA","NA","37","37","37","37","37","38","/","Wed Apr 10 14:42:32 2024","Executes Python code","yes","m21-ba-lexicalDecision.osexp","C:\Users\ekealey\Desktop","no","mono","no","18","no","white","no","yes","1080","legacy","37","37","C:/Users/ekealey/Desktop/subject-242.csv","xpyriment","Lentiform Loewenfeld","3.3.11","0","/","NA","NA","NA","NA","space","/","646","NA","NA","NA","NA","70173","646","2","legacy","1024","2","48000","-16","AB_m21","242","even","FILL_W","FOLLOW","1678","244958","243141","235981","72019","NA","NA","NA","NA","NA","243642","NA","NA","NA","242640","NA","242615","1845","245308","NA","NA","NA","243683","1678","1832","NA","NA","244330","244355","242615","243642","243663","morph21_Oliver/Morris","25","38187","38","yes","1920","17"
"250","","66.66666666666667","66.66666666666667","1003.4102564102565","1003.4102564102565","black","no","xpyriment","legacy","legacy","0","208","NA","uniform","NA","NA","NA","1","undefined","1","0","38","38","38","0","38","38","38","NA","0","38","NA","NA","0","38","NA","38","0","38","NA","NA","NA","38","0","0","NA","NA","38","38","38","38","38","39","z","Wed Apr 10 14:42:32 2024","Executes Python code","yes","m21-ba-lexicalDecision.osexp","C:\Users\ekealey\Desktop","no","mono","no","18","no","white","no","yes","1080","legacy","38","38","C:/Users/ekealey/Desktop/subject-242.csv","xpyriment","Lentiform Loewenfeld","3.3.11","0","z","NA","NA","NA","NA","space","z","946","NA","NA","NA","NA","70173","946","2","legacy","1024","2","48000","-16","AB_m21","242","even","FILL_NW","PLAODS","1678","250503","246881","248997","72019","NA","NA","NA","NA","NA","247382","NA","NA","NA","246379","NA","246352","1845","250753","NA","NA","NA","247423","1678","1832","NA","NA","248370","248394","246352","247382","247402","morph21_Oliver/Morris","26","39133","39","yes","1920","37"
"250","","67.5","67.5","996.9","996.9","black","no","xpyriment","legacy","legacy","0","207","NA","uniform","NA","NA","NA","1","undefined","1","0","39","39","39","0","39","39","39","NA","0","39","NA","NA","0","39","NA","39","0","39","NA","NA","NA","39","0","0","NA","NA","39","39","39","39","39","40","/","Wed Apr 10 14:42:32 2024","Executes Python code","yes","m21-ba-lexicalDecision.osexp","C:\Users\ekealey\Desktop","no","mono","no","18","no","white","no","yes","1080","legacy","39","39","C:/Users/ekealey/Desktop/subject-242.csv","xpyriment","Lentiform Loewenfeld","3.3.11","0","/","NA","NA","NA","NA","space","/","743","NA","NA","NA","NA","70173","743","2","legacy","1024","2","48000","-16","AB_m21","242","even","FILL_W","COOK","1678","254260","252349","248997","72019","NA","NA","NA","NA","NA","252849","NA","NA","NA","251849","NA","251821","1845","254511","NA","NA","NA","252890","1678","1832","NA","NA","253634","253657","251821","252849","252870","morph21_Oliver/Morris","27","39876","40","yes","1920","38"
"250","","68.29268292682927","68.29268292682927","993.170731707317","993.170731707317","black","no","xpyriment","legacy","legacy","0","207","NA","uniform","NA","NA","NA","1","undefined","1","0","40","40","40","0","40","40","40","NA","0","40","NA","NA","0","40","NA","40","0","40","NA","NA","NA","40","0","0","NA","NA","40","40","40","40","40","41","/","Wed Apr 10 14:42:32 2024","Executes Python code","yes","m21-ba-lexicalDecision.osexp","C:\Users\ekealey\Desktop","no","mono","no","18","no","white","no","yes","1080","legacy","40","40","C:/Users/ekealey/Desktop/subject-242.csv","xpyriment","Lentiform Loewenfeld","3.3.11","0","/","NA","NA","NA","NA","space","/","844","NA","NA","NA","NA","70173","844","2","legacy","1024","2","48000","-16","AB_m21","242","even","FILL_W","PACK","1678","258080","256064","248997","72019","NA","NA","NA","NA","NA","256564","NA","NA","NA","255564","NA","255539","1845","258330","NA","NA","NA","256605","1678","1832","NA","NA","257450","257475","255539","256564","256585","morph21_Oliver/Morris","28","40720","41","yes","1920","41"
"400","","69.04761904761905","69.04761904761905","988.6190476190476","988.6190476190476","black","no","xpyriment","legacy","legacy","0","202","NA","uniform","NA","NA","NA","1","undefined","1","0","41","41","41","0","41","41","41","NA","0","41","NA","NA","0","41","NA","41","0","41","NA","NA","NA","41","0","0","NA","NA","41","41","41","41","41","42","/","Wed Apr 10 14:42:32 2024","Executes Python code","yes","m21-ba-lexicalDecision.osexp","C:\Users\ekealey\Desktop","no","mono","no","18","no","white","no","yes","1080","legacy","41","41","C:/Users/ekealey/Desktop/subject-242.csv","xpyriment","Lentiform Loewenfeld","3.3.11","0","/","NA","NA","NA","NA","space","/","802","NA","NA","NA","NA","70173","802","2","legacy","1024","2","48000","-16","AB_m21","242","even","CW_L","SHAPELY","1678","263373","259898","261868","72019","NA","NA","NA","NA","NA","260398","NA","NA","NA","259397","NA","259368","1845","263773","NA","NA","NA","260439","1678","1832","NA","NA","261241","261265","259368","260398","260419","morph21_Oliver/Morris","29","41522","42","yes","1920","35"
"250","","69.76744186046511","69.76744186046511","986.4186046511628","986.4186046511628","black","no","xpyriment","legacy","legacy","0","201","NA","uniform","NA","NA","NA","1","undefined","1","0","42","42","42","0","42","42","42","NA","0","42","NA","NA","0","42","NA","42","0","42","NA","NA","NA","42","0","0","NA","NA","42","42","42","42","42","43","/","Wed Apr 10 14:42:32 2024","Executes Python code","yes","m21-ba-lexicalDecision.osexp","C:\Users\ekealey\Desktop","no","mono","no","18","no","white","no","yes","1080","legacy","42","42","C:/Users/ekealey/Desktop/subject-242.csv","xpyriment","Lentiform Loewenfeld","3.3.11","0","/","NA","NA","NA","NA","space","/","894","NA","NA","NA","NA","70173","894","2","legacy","1024","2","48000","-16","AB_m21","242","even","CW_S","HARMLESS","1678","267413","265350","261868","72019","NA","NA","NA","NA","NA","265850","NA","NA","NA","264849","NA","264820","1845","267663","NA","NA","NA","265891","1678","1832","NA","NA","266786","266810","264820","265850","265871","morph21_Oliver/Morris","30","42416","43","yes","1920","29"
"350","","68.18181818181819","68.18181818181819","991.2727272727273","991.2727272727273","black","no","xpyriment","legacy","legacy","0","208","NA","uniform","NA","NA","NA","0","undefined","0","0","43","43","43","0","43","43","43","NA","0","43","NA","NA","0","43","NA","43","0","43","NA","NA","NA","43","0","0","NA","NA","43","43","43","43","43","44","z","Wed Apr 10 14:42:32 2024","Executes Python code","yes","m21-ba-lexicalDecision.osexp","C:\Users\ekealey\Desktop","no","mono","no","18","no","white","no","yes","1080","legacy","43","43","C:/Users/ekealey/Desktop/subject-242.csv","xpyriment","Lentiform Loewenfeld","3.3.11","0","None","NA","NA","NA","NA","space","None","1200","NA","NA","NA","NA","70173","1200","2","legacy","1024","2","48000","-16","AB_m21","242","even","FILL_NW","JADS","1678","271596","269229","261868","72019","NA","NA","NA","NA","NA","269729","NA","NA","NA","268729","NA","268703","1845","271946","NA","NA","NA","269769","1678","1832","NA","NA","270969","270992","268703","269729","269749","morph21_Oliver/Morris","30","43616","44","yes","1920","31"
"400","","66.66666666666667","66.66666666666667","995.9111111111112","995.9111111111112","black","no","xpyriment","legacy","legacy","0","208","NA","uniform","NA","NA","NA","0","undefined","0","0","44","44","44","0","44","44","44","NA","0","44","NA","NA","0","44","NA","44","0","44","NA","NA","NA","44","0","0","NA","NA","44","44","44","44","44","45","z","Wed Apr 10 14:42:32 2024","Executes Python code","yes","m21-ba-lexicalDecision.osexp","C:\Users\ekealey\Desktop","no","mono","no","18","no","white","no","yes","1080","legacy","44","44","C:/Users/ekealey/Desktop/subject-242.csv","xpyriment","Lentiform Loewenfeld","3.3.11","0","None","NA","NA","NA","NA","space","None","1200","NA","NA","NA","NA","70173","1200","2","legacy","1024","2","48000","-16","AB_m21","242","even","FILL_NW","CORG","1678","277421","273547","275917","72019","NA","NA","NA","NA","NA","274048","NA","NA","NA","273046","NA","273016","1845","277821","NA","NA","NA","274088","1678","1832","NA","NA","275288","275313","273016","274048","274068","morph21_Oliver/Morris","30","44816","45","yes","1920","7"
"400","","65.21739130434783","65.21739130434783","995.4782608695652","995.4782608695652","black","no","xpyriment","legacy","legacy","0","207","NA","uniform","NA","NA","NA","0","undefined","0","0","45","45","45","0","45","45","45","NA","0","45","NA","NA","0","45","NA","45","0","45","NA","NA","NA","45","0","0","NA","NA","45","45","45","45","45","46","/","Wed Apr 10 14:42:32 2024","Executes Python code","yes","m21-ba-lexicalDecision.osexp","C:\Users\ekealey\Desktop","no","mono","no","18","no","white","no","yes","1080","legacy","45","45","C:/Users/ekealey/Desktop/subject-242.csv","xpyriment","Lentiform Loewenfeld","3.3.11","0","z","NA","NA","NA","NA","space","z","976","NA","NA","NA","NA","70173","976","2","legacy","1024","2","48000","-16","AB_m21","242","even","FILL_W","LITHE","1678","281532","279388","275917","72019","NA","NA","NA","NA","NA","279888","NA","NA","NA","278887","NA","278857","1845","281932","NA","NA","NA","279929","1678","1832","NA","NA","280906","280929","278857","279888","279909","morph21_Oliver/Morris","30","45792","46","yes","1920","23"
"400","","65.95744680851064","65.95744680851064","988.3829787234042","988.3829787234042","black","no","xpyriment","legacy","legacy","0","202","NA","uniform","NA","NA","NA","1","undefined","1","0","46","46","46","0","46","46","46","NA","0","46","NA","NA","0","46","NA","46","0","46","NA","NA","NA","46","0","0","NA","NA","46","46","46","46","46","47","/","Wed Apr 10 14:42:32 2024","Executes Python code","yes","m21-ba-lexicalDecision.osexp","C:\Users\ekealey\Desktop","no","mono","no","18","no","white","no","yes","1080","legacy","46","46","C:/Users/ekealey/Desktop/subject-242.csv","xpyriment","Lentiform Loewenfeld","3.3.11","0","/","NA","NA","NA","NA","space","/","662","NA","NA","NA","NA","70173","662","2","legacy","1024","2","48000","-16","AB_m21","242","even","CW_L","DRYNESS","1678","285323","283494","275917","72019","NA","NA","NA","NA","NA","283994","NA","NA","NA","282994","NA","282965","1845","285723","NA","NA","NA","284035","1678","1832","NA","NA","284697","284721","282965","283994","284015","morph21_Oliver/Morris","31","46454","47","yes","1920","42"
"300","","66.66666666666667","66.66666666666667","992.7291666666666","992.7291666666666","black","no","xpyriment","legacy","legacy","0","204","NA","uniform","NA","NA","NA","1","undefined","1","0","47","47","47","0","47","47","47","NA","0","47","NA","NA","0","47","NA","47","0","47","NA","NA","NA","47","0","0","NA","NA","47","47","47","47","47","48","z","Wed Apr 10 14:42:32 2024","Executes Python code","yes","m21-ba-lexicalDecision.osexp","C:\Users\ekealey\Desktop","no","mono","no","18","no","white","no","yes","1080","legacy","47","47","C:/Users/ekealey/Desktop/subject-242.csv","xpyriment","Lentiform Loewenfeld","3.3.11","0","z","NA","NA","NA","NA","space","z","1197","NA","NA","NA","NA","70173","1197","2","legacy","1024","2","48000","-16","AB_m21","242","even","NW_L_COMP","EMPLOYNELS","1678","291191","287318","289686","72019","NA","NA","NA","NA","NA","287819","NA","NA","NA","286817","NA","286790","1845","291491","NA","NA","NA","287860","1678","1832","NA","NA","289057","289083","286790","287819","287840","morph21_Oliver/Morris","32","47651","48","yes","1920","21"
"250","","65.3061224489796","65.3061224489796","996.9591836734694","996.9591836734694","black","no","xpyriment","legacy","legacy","0","204","NA","uniform","NA","NA","NA","0","undefined","0","0","48","48","48","0","48","48","48","NA","0","48","NA","NA","0","48","NA","48","0","48","NA","NA","NA","48","0","0","NA","NA","48","48","48","48","48","49","z","Wed Apr 10 14:42:32 2024","Executes Python code","yes","m21-ba-lexicalDecision.osexp","C:\Users\ekealey\Desktop","no","mono","no","18","no","white","no","yes","1080","legacy","48","48","C:/Users/ekealey/Desktop/subject-242.csv","xpyriment","Lentiform Loewenfeld","3.3.11","0","None","NA","NA","NA","NA","space","None","1200","NA","NA","NA","NA","70173","1200","2","legacy","1024","2","48000","-16","AB_m21","242","even","NW_L_COMP","STIRANGE","1678","295458","293091","289686","72019","NA","NA","NA","NA","NA","293591","NA","NA","NA","292591","NA","292560","1845","295708","NA","NA","NA","293632","1678","1832","NA","NA","294832","294855","292560","293591","293612","morph21_Oliver/Morris","32","48851","49","yes","1920","1"
"350","","64","64","1001.02","1001.02","black","no","xpyriment","legacy","legacy","0","204","NA","uniform","NA","NA","NA","0","undefined","0","0","49","49","49","0","49","49","49","NA","0","49","NA","NA","0","49","NA","49","0","49","NA","NA","NA","49","0","0","NA","NA","49","49","49","49","49","50","z","Wed Apr 10 14:42:32 2024","Executes Python code","yes","m21-ba-lexicalDecision.osexp","C:\Users\ekealey\Desktop","no","mono","no","18","no","white","no","yes","1080","legacy","49","49","C:/Users/ekealey/Desktop/subject-242.csv","xpyriment","Lentiform Loewenfeld","3.3.11","0","None","NA","NA","NA","NA","space","None","1200","NA","NA","NA","NA","70173","1200","2","legacy","1024","2","48000","-16","AB_m21","242","even","NW_L_COMP","MOUTHIME","1678","299676","297306","289686","72019","NA","NA","NA","NA","NA","297808","NA","NA","NA","296804","NA","296779","1845","300027","NA","NA","NA","297848","1678","1832","NA","NA","299048","299073","296779","297808","297828","morph21_Oliver/Morris","32","50051","50","yes","1920","11"
"350","","64.70588235294117","64.70588235294117","1000.7647058823529","1000.7647058823529","black","no","xpyriment","legacy","legacy","0","208","NA","uniform","NA","NA","NA","1","undefined","1","0","50","50","50","0","50","50","50","NA","0","50","NA","NA","0","50","NA","50","0","50","NA","NA","NA","50","0","0","NA","NA","50","50","50","50","50","51","z","Wed Apr 10 14:42:32 2024","Executes Python code","yes","m21-ba-lexicalDecision.osexp","C:\Users\ekealey\Desktop","no","mono","no","18","no","white","no","yes","1080","legacy","50","50","C:/Users/ekealey/Desktop/subject-242.csv","xpyriment","Lentiform Loewenfeld","3.3.11","0","z","NA","NA","NA","NA","space","z","988","NA","NA","NA","NA","70173","988","2","legacy","1024","2","48000","-16","AB_m21","242","even","FILL_NW","DOADS","1678","305271","301607","303765","72019","NA","NA","NA","NA","NA","302108","NA","NA","NA","301106","NA","301081","1845","305621","NA","NA","NA","302149","1678","1832","NA","NA","303138","303162","301081","302108","302129","morph21_Oliver/Morris","33","51039","51","yes","1920","15"
"200","","65.38461538461539","65.38461538461539","994.9615384615385","994.9615384615385","black","no","xpyriment","legacy","legacy","0","207","NA","uniform","NA","NA","NA","1","undefined","1","0","51","51","51","0","51","51","51","NA","0","51","NA","NA","0","51","NA","51","0","51","NA","NA","NA","51","0","0","NA","NA","51","51","51","51","51","52","/","Wed Apr 10 14:42:32 2024","Executes Python code","yes","m21-ba-lexicalDecision.osexp","C:\Users\ekealey\Desktop","no","mono","no","18","no","white","no","yes","1080","legacy","51","51","C:/Users/ekealey/Desktop/subject-242.csv","xpyriment","Lentiform Loewenfeld","3.3.11","0","/","NA","NA","NA","NA","space","/","699","NA","NA","NA","NA","70173","699","2","legacy","1024","2","48000","-16","AB_m21","242","even","FILL_W","FLOAT","1678","309085","307217","303765","72019","NA","NA","NA","NA","NA","307718","NA","NA","NA","306716","NA","306684","1845","309285","NA","NA","NA","307758","1678","1832","NA","NA","308458","308482","306684","307717","307738","morph21_Oliver/Morris","34","51738","52","yes","1920","30"
"400","","66.0377358490566","66.0377358490566","988.9811320754717","988.9811320754717","black","no","xpyriment","legacy","legacy","0","207","NA","uniform","NA","NA","NA","1","undefined","1","0","52","52","52","0","52","52","52","NA","0","52","NA","NA","0","52","NA","52","0","52","NA","NA","NA","52","0","0","NA","NA","52","52","52","52","52","53","/","Wed Apr 10 14:42:32 2024","Executes Python code","yes","m21-ba-lexicalDecision.osexp","C:\Users\ekealey\Desktop","no","mono","no","18","no","white","no","yes","1080","legacy","52","52","C:/Users/ekealey/Desktop/subject-242.csv","xpyriment","Lentiform Loewenfeld","3.3.11","0","/","NA","NA","NA","NA","space","/","678","NA","NA","NA","NA","70173","678","2","legacy","1024","2","48000","-16","AB_m21","242","even","FILL_W","QUIT","1678","312717","310870","303765","72019","NA","NA","NA","NA","NA","311370","NA","NA","NA","310370","NA","310342","1845","313117","NA","NA","NA","311411","1678","1832","NA","NA","312090","312114","310342","311370","311391","morph21_Oliver/Morris","35","52416","53","yes","1920","21"
"300","","66.66666666666667","66.66666666666667","991.7962962962963","991.7962962962963","black","no","xpyriment","legacy","legacy","0","202","NA","uniform","NA","NA","NA","1","undefined","1","0","53","53","53","0","53","53","53","NA","0","53","NA","NA","0","53","NA","53","0","53","NA","NA","NA","53","0","0","NA","NA","53","53","53","53","53","54","/","Wed Apr 10 14:42:32 2024","Executes Python code","yes","m21-ba-lexicalDecision.osexp","C:\Users\ekealey\Desktop","no","mono","no","18","no","white","no","yes","1080","legacy","53","53","C:/Users/ekealey/Desktop/subject-242.csv","xpyriment","Lentiform Loewenfeld","3.3.11","0","/","NA","NA","NA","NA","space","/","1141","NA","NA","NA","NA","70173","1141","2","legacy","1024","2","48000","-16","AB_m21","242","even","CW_L","DOUBTFUL","1678","318535","314719","317029","72019","NA","NA","NA","NA","NA","315220","NA","NA","NA","314217","NA","314190","1845","318835","NA","NA","NA","315260","1678","1832","NA","NA","316402","316426","314190","315220","315240","morph21_Oliver/Morris","36","53557","54","yes","1920","21"
"300","","67.27272727272727","67.27272727272727","984.8181818181819","984.8181818181819","black","no","xpyriment","legacy","legacy","0","207","NA","uniform","NA","NA","NA","1","undefined","1","0","54","54","54","0","54","54","54","NA","0","54","NA","NA","0","54","NA","54","0","54","NA","NA","NA","54","0","0","NA","NA","54","54","54","54","54","55","/","Wed Apr 10 14:42:32 2024","Executes Python code","yes","m21-ba-lexicalDecision.osexp","C:\Users\ekealey\Desktop","no","mono","no","18","no","white","no","yes","1080","legacy","54","54","C:/Users/ekealey/Desktop/subject-242.csv","xpyriment","Lentiform Loewenfeld","3.3.11","0","/","NA","NA","NA","NA","space","/","608","NA","NA","NA","NA","70173","608","2","legacy","1024","2","48000","-16","AB_m21","242","even","FILL_W","SICK","1678","322196","320421","317029","72019","NA","NA","NA","NA","NA","320921","NA","NA","NA","319920","NA","319892","1845","322496","NA","NA","NA","320961","1678","1832","NA","NA","321570","321593","319892","320921","320941","morph21_Oliver/Morris","37","54165","55","yes","1920","36"
"350","","67.85714285714286","67.85714285714286","982.3035714285714","982.3035714285714","black","no","xpyriment","legacy","legacy","0","203","NA","uniform","NA","NA","NA","1","undefined","1","0","55","55","55","0","55","55","55","NA","0","55","NA","NA","0","55","NA","55","0","55","NA","NA","NA","55","0","0","NA","NA","55","55","55","55","55","56","z","Wed Apr 10 14:42:32 2024","Executes Python code","yes","m21-ba-lexicalDecision.osexp","C:\Users\ekealey\Desktop","no","mono","no","18","no","white","no","yes","1080","legacy","55","55","C:/Users/ekealey/Desktop/subject-242.csv","xpyriment","Lentiform Loewenfeld","3.3.11","0","z","NA","NA","NA","NA","space","z","844","NA","NA","NA","NA","70173","844","2","legacy","1024","2","48000","-16","AB_m21","242","even","NW_S_COMP","HUMIDOES","1678","326084","324072","317029","72019","NA","NA","NA","NA","NA","324572","NA","NA","NA","323572","NA","323547","1845","326435","NA","NA","NA","324613","1678","1832","NA","NA","325458","325482","323546","324572","324593","morph21_Oliver/Morris","38","55009","56","yes","1920","25"
"200","","66.66666666666667","66.66666666666667","986.1228070175439","986.1228070175439","black","no","xpyriment","legacy","legacy","0","203","NA","uniform","NA","NA","NA","0","undefined","0","0","56","56","56","0","56","56","56","NA","0","56","NA","NA","0","56","NA","56","0","56","NA","NA","NA","56","0","0","NA","NA","56","56","56","56","56","57","z","Wed Apr 10 14:42:32 2024","Executes Python code","yes","m21-ba-lexicalDecision.osexp","C:\Users\ekealey\Desktop","no","mono","no","18","no","white","no","yes","1080","legacy","56","56","C:/Users/ekealey/Desktop/subject-242.csv","xpyriment","Lentiform Loewenfeld","3.3.11","0","None","NA","NA","NA","NA","space","None","1200","NA","NA","NA","NA","70173","1200","2","legacy","1024","2","48000","-16","AB_m21","242","even","NW_S_COMP","PILLIME","1678","331874","327999","330368","72019","NA","NA","NA","NA","NA","328500","NA","NA","NA","327499","NA","327470","1845","332074","NA","NA","NA","328541","1678","1832","NA","NA","329741","329765","327470","328500","328521","morph21_Oliver/Morris","38","56209","57","yes","1920","13"
"300","","65.51724137931035","65.51724137931035","989.8103448275862","989.8103448275862","black","no","xpyriment","legacy","legacy","0","206","NA","uniform","NA","NA","NA","0","undefined","0","0","57","57","57","0","57","57","57","NA","0","57","NA","NA","0","57","NA","57","0","57","NA","NA","NA","57","0","0","NA","NA","57","57","57","57","57","58","z","Wed Apr 10 14:42:32 2024","Executes Python code","yes","m21-ba-lexicalDecision.osexp","C:\Users\ekealey\Desktop","no","mono","no","18","no","white","no","yes","1080","legacy","57","57","C:/Users/ekealey/Desktop/subject-242.csv","xpyriment","Lentiform Loewenfeld","3.3.11","0","None","NA","NA","NA","NA","space","None","1200","NA","NA","NA","NA","70173","1200","2","legacy","1024","2","48000","-16","AB_m21","242","even","NW_L_SIMP","PRAYANCE","1678","336019","333651","330368","72019","NA","NA","NA","NA","NA","334151","NA","NA","NA","333150","NA","333123","1845","336319","NA","NA","NA","334193","1678","1832","NA","NA","335393","335416","333123","334151","334172","morph21_Oliver/Morris","38","57409","58","yes","1920","1"
"400","","66.10169491525424","66.10169491525424","987.542372881356","987.542372881356","black","no","xpyriment","legacy","legacy","0","207","NA","uniform","NA","NA","NA","1","undefined","1","0","58","58","58","0","58","58","58","NA","0","58","NA","NA","0","58","NA","58","0","58","NA","NA","NA","58","0","0","NA","NA","58","58","58","58","58","59","/","Wed Apr 10 14:42:32 2024","Executes Python code","yes","m21-ba-lexicalDecision.osexp","C:\Users\ekealey\Desktop","no","mono","no","18","no","white","no","yes","1080","legacy","58","58","C:/Users/ekealey/Desktop/subject-242.csv","xpyriment","Lentiform Loewenfeld","3.3.11","0","/","NA","NA","NA","NA","space","/","856","NA","NA","NA","NA","70173","856","2","legacy","1024","2","48000","-16","AB_m21","242","even","FILL_W","DRUNK","1678","339900","337876","330368","72019","NA","NA","NA","NA","NA","338377","NA","NA","NA","337375","NA","337348","1845","340300","NA","NA","NA","338417","1678","1832","NA","NA","339273","339297","337348","338376","338397","morph21_Oliver/Morris","39","58265","59","yes","1920","19"
"200","","65","65","991.0833333333334","991.0833333333334","black","no","xpyriment","legacy","legacy","0","208","NA","uniform","NA","NA","NA","0","undefined","0","0","59","59","59","0","59","59","59","NA","0","59","NA","NA","0","59","NA","59","0","59","NA","NA","NA","59","0","0","NA","NA","59","59","59","59","59","60","z","Wed Apr 10 14:42:32 2024","Executes Python code","yes","m21-ba-lexicalDecision.osexp","C:\Users\ekealey\Desktop","no","mono","no","18","no","white","no","yes","1080","legacy","59","59","C:/Users/ekealey/Desktop/subject-242.csv","xpyriment","Lentiform Loewenfeld","3.3.11","0","None","NA","NA","NA","NA","space","None","1200","NA","NA","NA","NA","70173","1200","2","legacy","1024","2","48000","-16","AB_m21","242","even","FILL_NW","DARM","1678","345766","341895","344262","72019","NA","NA","NA","NA","NA","342395","NA","NA","NA","341395","NA","341368","1845","345967","NA","NA","NA","342436","1678","1832","NA","NA","343636","343659","341368","342395","342416","morph21_Oliver/Morris","39","59465","60","yes","1920","11"
"400","","63.9344262295082","63.9344262295082","994.5081967213115","994.5081967213115","black","no","xpyriment","legacy","legacy","0","201","NA","uniform","NA","NA","NA","0","undefined","0","0","60","60","60","0","60","60","60","NA","0","60","NA","NA","0","60","NA","60","0","60","NA","NA","NA","60","0","0","NA","NA","60","60","60","60","60","61","/","Wed Apr 10 14:42:32 2024","Executes Python code","yes","m21-ba-lexicalDecision.osexp","C:\Users\ekealey\Desktop","no","mono","no","18","no","white","no","yes","1080","legacy","60","60","C:/Users/ekealey/Desktop/subject-242.csv","xpyriment","Lentiform Loewenfeld","3.3.11","0","None","NA","NA","NA","NA","space","None","1200","NA","NA","NA","NA","70173","1200","2","legacy","1024","2","48000","-16","AB_m21","242","even","CW_S","EFFORTLESS","1678","349926","347559","344262","72019","NA","NA","NA","NA","NA","348060","NA","NA","NA","347058","NA","347031","1845","350326","NA","NA","NA","348100","1678","1832","NA","NA","349300","349323","347031","348060","348080","morph21_Oliver/Morris","39","60665","61","yes","1920","30"
"200","","64.51612903225806","64.51612903225806","994.4677419354839","994.4677419354839","black","no","xpyriment","legacy","legacy","0","203","NA","uniform","NA","NA","NA","1","undefined","1","0","61","61","61","0","61","61","61","NA","0","61","NA","NA","0","61","NA","61","0","61","NA","NA","NA","61","0","0","NA","NA","61","61","61","61","61","62","z","Wed Apr 10 14:42:32 2024","Executes Python code","yes","m21-ba-lexicalDecision.osexp","C:\Users\ekealey\Desktop","no","mono","no","18","no","white","no","yes","1080","legacy","61","61","C:/Users/ekealey/Desktop/subject-242.csv","xpyriment","Lentiform Loewenfeld","3.3.11","0","z","NA","NA","NA","NA","space","z","992","NA","NA","NA","NA","70173","992","2","legacy","1024","2","48000","-16","AB_m21","242","even","NW_S_COMP","DUMBIDY","1678","354092","351932","344262","72019","NA","NA","NA","NA","NA","352432","NA","NA","NA","351432","NA","351407","1845","354292","NA","NA","NA","352473","1678","1832","NA","NA","353465","353489","351407","352432","352453","morph21_Oliver/Morris","40","61657","62","yes","1920","12"
"300","","65.07936507936508","65.07936507936508","994.6984126984127","994.6984126984127","black","no","xpyriment","legacy","legacy","0","202","NA","uniform","NA","NA","NA","1","undefined","1","0","62","62","62","0","62","62","62","NA","0","62","NA","NA","0","62","NA","62","0","62","NA","NA","NA","62","0","0","NA","NA","62","62","62","62","62","63","/","Wed Apr 10 14:42:32 2024","Executes Python code","yes","m21-ba-lexicalDecision.osexp","C:\Users\ekealey\Desktop","no","mono","no","18","no","white","no","yes","1080","legacy","62","62","C:/Users/ekealey/Desktop/subject-242.csv","xpyriment","Lentiform Loewenfeld","3.3.11","0","/","NA","NA","NA","NA","space","/","1009","NA","NA","NA","NA","70173","1009","2","legacy","1024","2","48000","-16","AB_m21","242","even","CW_L","WEEDY","1678","359557","355874","358053","72019","NA","NA","NA","NA","NA","356375","NA","NA","NA","355372","NA","355346","1845","359857","NA","NA","NA","356415","1678","1832","NA","NA","357425","357450","355346","356375","356395","morph21_Oliver/Morris","41","62666","63","yes","1920","48"
"250","","65.625","65.625","988.65625","988.65625","black","no","xpyriment","legacy","legacy","0","207","NA","uniform","NA","NA","NA","1","undefined","1","0","63","63","63","0","63","63","63","NA","0","63","NA","NA","0","63","NA","63","0","63","NA","NA","NA","63","0","0","NA","NA","63","63","63","63","63","64","/","Wed Apr 10 14:42:32 2024","Executes Python code","yes","m21-ba-lexicalDecision.osexp","C:\Users\ekealey\Desktop","no","mono","no","18","no","white","no","yes","1080","legacy","63","63","C:/Users/ekealey/Desktop/subject-242.csv","xpyriment","Lentiform Loewenfeld","3.3.11","0","/","NA","NA","NA","NA","space","/","608","NA","NA","NA","NA","70173","608","2","legacy","1024","2","48000","-16","AB_m21","242","even","FILL_W","PREACH","1678","363215","361436","358053","72019","NA","NA","NA","NA","NA","361937","NA","NA","NA","360935","NA","360902","1845","363465","NA","NA","NA","361977","1678","1832","NA","NA","362586","362611","360902","361937","361957","morph21_Oliver/Morris","42","63274","64","yes","1920","7"
"250","","66.15384615384616","66.15384615384616","990.1846153846154","990.1846153846154","black","no","xpyriment","legacy","legacy","0","201","NA","uniform","NA","NA","NA","1","undefined","1","0","64","64","64","0","64","64","64","NA","0","64","NA","NA","0","64","NA","64","0","64","NA","NA","NA","64","0","0","NA","NA","64","64","64","64","64","65","/","Wed Apr 10 14:42:32 2024","Executes Python code","yes","m21-ba-lexicalDecision.osexp","C:\Users\ekealey\Desktop","no","mono","no","18","no","white","no","yes","1080","legacy","64","64","C:/Users/ekealey/Desktop/subject-242.csv","xpyriment","Lentiform Loewenfeld","3.3.11","0","/","NA","NA","NA","NA","space","/","1088","NA","NA","NA","NA","70173","1088","2","legacy","1024","2","48000","-16","AB_m21","242","even","CW_S","SEEKER","1678","367293","365036","358053","72019","NA","NA","NA","NA","NA","365536","NA","NA","NA","364536","NA","364510","1845","367543","NA","NA","NA","365577","1678","1832","NA","NA","366665","366690","364510","365536","365557","morph21_Oliver/Morris","43","64362","65","yes","1920","16"
"400","","65.15151515151516","65.15151515151516","993.3636363636364","993.3636363636364","black","no","xpyriment","legacy","legacy","0","202","NA","uniform","NA","NA","NA","0","undefined","0","0","65","65","65","0","65","65","65","NA","0","65","NA","NA","0","65","NA","65","0","65","NA","NA","NA","65","0","0","NA","NA","65","65","65","65","65","66","/","Wed Apr 10 14:42:32 2024","Executes Python code","yes","m21-ba-lexicalDecision.osexp","C:\Users\ekealey\Desktop","no","mono","no","18","no","white","no","yes","1080","legacy","65","65","C:/Users/ekealey/Desktop/subject-242.csv","xpyriment","Lentiform Loewenfeld","3.3.11","0","None","NA","NA","NA","NA","space","None","1200","NA","NA","NA","NA","70173","1200","2","legacy","1024","2","48000","-16","AB_m21","242","even","CW_L","STYLISH","1678","372990","369117","371485","72019","NA","NA","NA","NA","NA","369618","NA","NA","NA","368615","NA","368588","1845","373390","NA","NA","NA","369658","1678","1832","NA","NA","370858","370881","368588","369618","369638","morph21_Oliver/Morris","43","65562","66","yes","1920","29"
"350","","65.67164179104478","65.67164179104478","993.3731343283582","993.3731343283582","black","no","xpyriment","legacy","legacy","0","201","NA","uniform","NA","NA","NA","1","undefined","1","0","66","66","66","0","66","66","66","NA","0","66","NA","NA","0","66","NA","66","0","66","NA","NA","NA","66","0","0","NA","NA","66","66","66","66","66","67","/","Wed Apr 10 14:42:32 2024","Executes Python code","yes","m21-ba-lexicalDecision.osexp","C:\Users\ekealey\Desktop","no","mono","no","18","no","white","no","yes","1080","legacy","66","66","C:/Users/ekealey/Desktop/subject-242.csv","xpyriment","Lentiform Loewenfeld","3.3.11","0","/","NA","NA","NA","NA","space","/","994","NA","NA","NA","NA","70173","994","2","legacy","1024","2","48000","-16","AB_m21","242","even","CW_S","RICHNESS","1678","377144","374979","371485","72019","NA","NA","NA","NA","NA","375479","NA","NA","NA","374477","NA","374450","1845","377494","NA","NA","NA","375519","1678","1832","NA","NA","376514","376539","374450","375479","375499","morph21_Oliver/Morris","44","66556","67","yes","1920","45"
"200","","64.70588235294117","64.70588235294117","995.8529411764706","995.8529411764706","black","no","xpyriment","legacy","legacy","0","205","NA","uniform","NA","NA","NA","0","undefined","0","0","67","67","67","0","67","67","67","NA","0","67","NA","NA","0","67","NA","67","0","67","NA","NA","NA","67","0","0","NA","NA","67","67","67","67","67","68","z","Wed Apr 10 14:42:32 2024","Executes Python code","yes","m21-ba-lexicalDecision.osexp","C:\Users\ekealey\Desktop","no","mono","no","18","no","white","no","yes","1080","legacy","67","67","C:/Users/ekealey/Desktop/subject-242.csv","xpyriment","Lentiform Loewenfeld","3.3.11","0","/","NA","NA","NA","NA","space","/","1162","NA","NA","NA","NA","70173","1162","2","legacy","1024","2","48000","-16","AB_m21","242","even","NW_S_SIMP","NULLISH","1678","381407","379072","371485","72019","NA","NA","NA","NA","NA","379573","NA","NA","NA","378570","NA","378547","1845","381608","NA","NA","NA","379614","1678","1832","NA","NA","380777","380803","378547","379573","379594","morph21_Oliver/Morris","44","67718","68","yes","1920","23"
"350","","65.21739130434783","65.21739130434783","993.3623188405797","993.3623188405797","black","no","xpyriment","legacy","legacy","0","208","NA","uniform","NA","NA","NA","1","undefined","1","0","68","68","68","0","68","68","68","NA","0","68","NA","NA","0","68","NA","68","0","68","NA","NA","NA","68","0","0","NA","NA","68","68","68","68","68","69","z","Wed Apr 10 14:42:32 2024","Executes Python code","yes","m21-ba-lexicalDecision.osexp","C:\Users\ekealey\Desktop","no","mono","no","18","no","white","no","yes","1080","legacy","68","68","C:/Users/ekealey/Desktop/subject-242.csv","xpyriment","Lentiform Loewenfeld","3.3.11","0","z","NA","NA","NA","NA","space","z","824","NA","NA","NA","NA","70173","824","2","legacy","1024","2","48000","-16","AB_m21","242","even","FILL_NW","DASP","1678","386661","383164","385156","72019","NA","NA","NA","NA","NA","383665","NA","NA","NA","382663","NA","382634","1845","387011","NA","NA","NA","383705","1678","1832","NA","NA","384530","384553","382634","383665","383685","morph21_Oliver/Morris","45","68542","69","yes","1920","13"
"400","","65.71428571428571","65.71428571428571","992.2714285714286","992.2714285714286","black","no","xpyriment","legacy","legacy","0","208","NA","uniform","NA","NA","NA","1","undefined","1","0","69","69","69","0","69","69","69","NA","0","69","NA","NA","0","69","NA","69","0","69","NA","NA","NA","69","0","0","NA","NA","69","69","69","69","69","70","z","Wed Apr 10 14:42:32 2024","Executes Python code","yes","m21-ba-lexicalDecision.osexp","C:\Users\ekealey\Desktop","no","mono","no","18","no","white","no","yes","1080","legacy","69","69","C:/Users/ekealey/Desktop/subject-242.csv","xpyriment","Lentiform Loewenfeld","3.3.11","0","z","NA","NA","NA","NA","space","z","917","NA","NA","NA","NA","70173","917","2","legacy","1024","2","48000","-16","AB_m21","242","even","FILL_NW","SOISE","1678","390717","388632","385156","72019","NA","NA","NA","NA","NA","389132","NA","NA","NA","388132","NA","388106","1845","391117","NA","NA","NA","389172","1678","1832","NA","NA","390090","390114","388106","389132","389152","morph21_Oliver/Morris","46","69459","70","yes","1920","43"
"250","","66.19718309859155","66.19718309859155","986.6197183098592","986.6197183098592","black","no","xpyriment","legacy","legacy","0","207","NA","uniform","NA","NA","NA","1","undefined","1","0","70","70","70","0","70","70","70","NA","0","70","NA","NA","0","70","NA","70","0","70","NA","NA","NA","70","0","0","NA","NA","70","70","70","70","70","71","/","Wed Apr 10 14:42:32 2024","Executes Python code","yes","m21-ba-lexicalDecision.osexp","C:\Users\ekealey\Desktop","no","mono","no","18","no","white","no","yes","1080","legacy","70","70","C:/Users/ekealey/Desktop/subject-242.csv","xpyriment","Lentiform Loewenfeld","3.3.11","0","/","NA","NA","NA","NA","space","/","591","NA","NA","NA","NA","70173","591","2","legacy","1024","2","48000","-16","AB_m21","242","even","FILL_W","SHIP","1678","394460","392700","385156","72019","NA","NA","NA","NA","NA","393201","NA","NA","NA","392199","NA","392176","1845","394710","NA","NA","NA","393242","1678","1832","NA","NA","393833","393857","392176","393201","393222","morph21_Oliver/Morris","47","70050","71","yes","1920","37"
"250","","65.27777777777777","65.27777777777777","989.5833333333334","989.5833333333334","black","no","xpyriment","legacy","legacy","0","206","NA","uniform","NA","NA","NA","0","undefined","0","0","71","71","71","0","71","71","71","NA","0","71","NA","NA","0","71","NA","71","0","71","NA","NA","NA","71","0","0","NA","NA","71","71","71","71","71","72","z","Wed Apr 10 14:42:32 2024","Executes Python code","yes","m21-ba-lexicalDecision.osexp","C:\Users\ekealey\Desktop","no","mono","no","18","no","white","no","yes","1080","legacy","71","71","C:/Users/ekealey/Desktop/subject-242.csv","xpyriment","Lentiform Loewenfeld","3.3.11","0","None","NA","NA","NA","NA","space","None","1200","NA","NA","NA","NA","70173","1200","2","legacy","1024","2","48000","-16","AB_m21","242","even","NW_L_SIMP","SMOOTHFUL","1678","400137","396264","398632","72019","NA","NA","NA","NA","NA","396764","NA","NA","NA","395763","NA","395735","1845","400388","NA","NA","NA","396805","1678","1832","NA","NA","398005","398029","395735","396764","396785","morph21_Oliver/Morris","47","71250","72","yes","1920","19"
"350","","64.38356164383562","64.38356164383562","992.4657534246576","992.4657534246576","black","no","xpyriment","legacy","legacy","0","203","NA","uniform","NA","NA","NA","0","undefined","0","0","72","72","72","0","72","72","72","NA","0","72","NA","NA","0","72","NA","72","0","72","NA","NA","NA","72","0","0","NA","NA","72","72","72","72","72","73","z","Wed Apr 10 14:42:32 2024","Executes Python code","yes","m21-ba-lexicalDecision.osexp","C:\Users\ekealey\Desktop","no","mono","no","18","no","white","no","yes","1080","legacy","72","72","C:/Users/ekealey/Desktop/subject-242.csv","xpyriment","Lentiform Loewenfeld","3.3.11","0","None","NA","NA","NA","NA","space","None","1200","NA","NA","NA","NA","70173","1200","2","legacy","1024","2","48000","-16","AB_m21","242","even","NW_S_COMP","FIENDILM","1678","404360","401992","398632","72019","NA","NA","NA","NA","NA","402492","NA","NA","NA","401490","NA","401462","1845","404710","NA","NA","NA","402533","1678","1832","NA","NA","403733","403757","401462","402492","402513","morph21_Oliver/Morris","47","72450","73","yes","1920","24"
"350","","64.86486486486487","64.86486486486487","989.2702702702703","989.2702702702703","black","no","xpyriment","legacy","legacy","0","201","NA","uniform","NA","NA","NA","1","undefined","1","0","73","73","73","0","73","73","73","NA","0","73","NA","NA","0","73","NA","73","0","73","NA","NA","NA","73","0","0","NA","NA","73","73","73","73","73","74","/","Wed Apr 10 14:42:32 2024","Executes Python code","yes","m21-ba-lexicalDecision.osexp","C:\Users\ekealey\Desktop","no","mono","no","18","no","white","no","yes","1080","legacy","73","73","C:/Users/ekealey/Desktop/subject-242.csv","xpyriment","Lentiform Loewenfeld","3.3.11","0","/","NA","NA","NA","NA","space","/","756","NA","NA","NA","NA","70173","756","2","legacy","1024","2","48000","-16","AB_m21","242","even","CW_S","TOASTER","1678","408220","406296","398632","72019","NA","NA","NA","NA","NA","406796","NA","NA","NA","405796","NA","405767","1845","408570","NA","NA","NA","406837","1678","1832","NA","NA","407594","407617","405767","406796","406817","morph21_Oliver/Morris","48","73206","74","yes","1920","10"
"250","","65.33333333333333","65.33333333333333","986.4533333333334","986.4533333333334","black","no","xpyriment","legacy","legacy","0","207","NA","uniform","NA","NA","NA","undefined","undefined","1","0","74","74","74","0","74","74","74","NA","0","74","NA","NA","0","74","NA","74","0","74","NA","NA","NA","74","0","0","NA","NA","74","74","74","74","74","75","/","Wed Apr 10 14:42:32 2024","Executes Python code","yes","m21-ba-lexicalDecision.osexp","C:\Users\ekealey\Desktop","no","mono","no","18","no","white","no","yes","1080","legacy","74","74","C:/Users/ekealey/Desktop/subject-242.csv","xpyriment","Lentiform Loewenfeld","3.3.11","0","space","space","NA","NA","NA","space","/","31955","31955","NA","NA","NA","70173","778","2","legacy","1024","2","48000","-16","AB_m21","242","even","FILL_W","SOUGHT","1678","413582","410130","412079","72019","413837","NA","NA","NA","NA","410630","NA","NA","NA","409629","NA","409599","1845","445793","NA","NA","NA","410670","1678","1832","NA","NA","411449","411474","409599","410630","410650","morph21_Oliver/Morris","49","73984","75","yes","1920","40"
"250","","64.47368421052632","64.47368421052632","989.2631578947369","989.2631578947369","black","no","xpyriment","legacy","legacy","0","204","NA","uniform","NA","NA","NA","0","undefined","0","0","75","75","75","0","75","75","75","NA","0","75","NA","NA","0","75","NA","75","0","75","NA","NA","NA","75","0","0","NA","NA","75","75","75","75","75","76","z","Wed Apr 10 14:42:32 2024","Executes Python code","yes","m21-ba-lexicalDecision.osexp","C:\Users\ekealey\Desktop","no","mono","no","18","no","white","no","yes","1080","legacy","75","75","C:/Users/ekealey/Desktop/subject-242.csv","xpyriment","Lentiform Loewenfeld","3.3.11","0","None","space","NA","NA","NA","space","None","1200","31955","NA","NA","NA","70173","1200","2","legacy","1024","2","48000","-16","AB_m21","242","even","NW_L_COMP","MUDLA","1678","449754","447387","412079","72019","413837","NA","NA","NA","NA","447888","NA","NA","NA","446887","NA","446860","1845","450004","NA","NA","NA","447928","1678","1832","NA","NA","449128","449151","446859","447888","447908","morph21_Oliver/Morris","49","75184","76","yes","1920","12"
"200","","64.93506493506493","64.93506493506493","986.7792207792207","986.7792207792207","black","no","xpyriment","legacy","legacy","0","208","NA","uniform","NA","NA","NA","1","undefined","1","0","76","76","76","0","76","76","76","NA","0","76","NA","NA","0","76","NA","76","0","76","NA","NA","NA","76","0","0","NA","NA","76","76","76","76","76","77","z","Wed Apr 10 14:42:32 2024","Executes Python code","yes","m21-ba-lexicalDecision.osexp","C:\Users\ekealey\Desktop","no","mono","no","18","no","white","no","yes","1080","legacy","76","76","C:/Users/ekealey/Desktop/subject-242.csv","xpyriment","Lentiform Loewenfeld","3.3.11","0","z","space","NA","NA","NA","space","z","798","31955","NA","NA","NA","70173","798","2","legacy","1024","2","48000","-16","AB_m21","242","even","FILL_NW","BROUPS","1678","453517","451550","412079","72019","413837","NA","NA","NA","NA","452050","NA","NA","NA","451050","NA","451022","1845","453717","NA","NA","NA","452091","1678","1832","NA","NA","452889","452914","451022","452050","452071","morph21_Oliver/Morris","50","75982","77","yes","1920","4"
"400","","65.38461538461539","65.38461538461539","988.2820512820513","988.2820512820513","black","no","xpyriment","legacy","legacy","0","208","NA","uniform","NA","NA","NA","1","undefined","1","0","77","77","77","0","77","77","77","NA","0","77","NA","NA","0","77","NA","77","0","77","NA","NA","NA","77","0","0","NA","NA","77","77","77","77","77","78","z","Wed Apr 10 14:42:32 2024","Executes Python code","yes","m21-ba-lexicalDecision.osexp","C:\Users\ekealey\Desktop","no","mono","no","18","no","white","no","yes","1080","legacy","77","77","C:/Users/ekealey/Desktop/subject-242.csv","xpyriment","Lentiform Loewenfeld","3.3.11","0","z","space","NA","NA","NA","space","z","1104","31955","NA","NA","NA","70173","1104","2","legacy","1024","2","48000","-16","AB_m21","242","even","FILL_NW","HEND","1678","459053","455275","457548","72019","413837","NA","NA","NA","NA","455776","NA","NA","NA","454772","NA","454748","1845","459453","NA","NA","NA","455816","1678","1832","NA","NA","456921","456945","454747","455776","455796","morph21_Oliver/Morris","51","77086","78","yes","1920","28"
"350","","65.82278481012658","65.82278481012658","983.9493670886076","983.9493670886076","black","no","xpyriment","legacy","legacy","0","207","NA","uniform","NA","NA","NA","1","undefined","1","0","78","78","78","0","78","78","78","NA","0","78","NA","NA","0","78","NA","78","0","78","NA","NA","NA","78","0","0","NA","NA","78","78","78","78","78","79","/","Wed Apr 10 14:42:32 2024","Executes Python code","yes","m21-ba-lexicalDecision.osexp","C:\Users\ekealey\Desktop","no","mono","no","18","no","white","no","yes","1080","legacy","78","78","C:/Users/ekealey/Desktop/subject-242.csv","xpyriment","Lentiform Loewenfeld","3.3.11","0","/","space","NA","NA","NA","space","/","646","31955","NA","NA","NA","70173","646","2","legacy","1024","2","48000","-16","AB_m21","242","even","FILL_W","BRISK","1678","462878","461063","457548","72019","413837","NA","NA","NA","NA","461563","NA","NA","NA","460562","NA","460533","1845","463228","NA","NA","NA","461603","1678","1832","NA","NA","462250","462273","460533","461563","461583","morph21_Oliver/Morris","52","77732","79","yes","1920","8"
"400","","66.25","66.25","984.975","984.975","black","no","xpyriment","legacy","legacy","0","206","NA","uniform","NA","NA","NA","1","undefined","1","0","79","79","79","0","79","79","79","NA","0","79","NA","NA","0","79","NA","79","0","79","NA","NA","NA","79","0","0","NA","NA","79","79","79","79","79","80","z","Wed Apr 10 14:42:32 2024","Executes Python code","yes","m21-ba-lexicalDecision.osexp","C:\Users\ekealey\Desktop","no","mono","no","18","no","white","no","yes","1080","legacy","79","79","C:/Users/ekealey/Desktop/subject-242.csv","xpyriment","Lentiform Loewenfeld","3.3.11","0","z","space","NA","NA","NA","space","z","1066","31955","NA","NA","NA","70173","1066","2","legacy","1024","2","48000","-16","AB_m21","242","even","NW_L_SIMP","POORITY","1678","467029","464793","457548","72019","413837","NA","NA","NA","NA","465293","NA","NA","NA","464292","NA","464264","1845","467429","NA","NA","NA","465334","1678","1832","NA","NA","466401","466426","464264","465293","465314","morph21_Oliver/Morris","53","78798","80","yes","1920","13"
"200","","66.66666666666667","66.66666666666667","980.4691358024692","980.4691358024692","black","no","xpyriment","legacy","legacy","0","207","NA","uniform","NA","NA","NA","1","undefined","1","0","80","80","80","0","80","80","80","NA","0","80","NA","NA","0","80","NA","80","0","80","NA","NA","NA","80","0","0","NA","NA","80","80","80","80","80","81","/","Wed Apr 10 14:42:32 2024","Executes Python code","yes","m21-ba-lexicalDecision.osexp","C:\Users\ekealey\Desktop","no","mono","no","18","no","white","no","yes","1080","legacy","80","80","C:/Users/ekealey/Desktop/subject-242.csv","xpyriment","Lentiform Loewenfeld","3.3.11","0","/","space","NA","NA","NA","space","/","620","31955","NA","NA","NA","70173","620","2","legacy","1024","2","48000","-16","AB_m21","242","even","FILL_W","WRECK","1678","472291","469000","470788","72019","413837","NA","NA","NA","NA","469500","NA","NA","NA","468499","NA","468468","1845","472491","NA","NA","NA","469540","1678","1832","NA","NA","470161","470185","468468","469500","469520","morph21_Oliver/Morris","54","79418","81","yes","1920","13"
"250","","67.07317073170732","67.07317073170732","978.0487804878048","978.0487804878048","black","no","xpyriment","legacy","legacy","0","207","NA","uniform","NA","NA","NA","1","undefined","1","0","81","81","81","0","81","81","81","NA","0","81","NA","NA","0","81","NA","81","0","81","NA","NA","NA","81","0","0","NA","NA","81","81","81","81","81","82","/","Wed Apr 10 14:42:32 2024","Executes Python code","yes","m21-ba-lexicalDecision.osexp","C:\Users\ekealey\Desktop","no","mono","no","18","no","white","no","yes","1080","legacy","81","81","C:/Users/ekealey/Desktop/subject-242.csv","xpyriment","Lentiform Loewenfeld","3.3.11","0","/","space","NA","NA","NA","space","/","782","31955","NA","NA","NA","70173","782","2","legacy","1024","2","48000","-16","AB_m21","242","even","FILL_W","SLIM","1678","476006","474053","470788","72019","413837","NA","NA","NA","NA","474553","NA","NA","NA","473551","NA","473516","1845","476256","NA","NA","NA","474594","1678","1832","NA","NA","475377","475401","473516","474553","474574","morph21_Oliver/Morris","55","80200","82","yes","1920","6"
"250","","66.26506024096386","66.26506024096386","980.722891566265","980.722891566265","black","no","xpyriment","legacy","legacy","0","206","NA","uniform","NA","NA","NA","0","undefined","0","0","82","82","82","0","82","82","82","NA","0","82","NA","NA","0","82","NA","82","0","82","NA","NA","NA","82","0","0","NA","NA","82","82","82","82","82","83","z","Wed Apr 10 14:42:32 2024","Executes Python code","yes","m21-ba-lexicalDecision.osexp","C:\Users\ekealey\Desktop","no","mono","no","18","no","white","no","yes","1080","legacy","82","82","C:/Users/ekealey/Desktop/subject-242.csv","xpyriment","Lentiform Loewenfeld","3.3.11","0","None","space","NA","NA","NA","space","None","1200","31955","NA","NA","NA","70173","1200","2","legacy","1024","2","48000","-16","AB_m21","242","even","NW_L_SIMP"," DRESSORY","1678","480219","477852","470788","72019","413837","NA","NA","NA","NA","478353","NA","NA","NA","477352","NA","477324","1845","480469","NA","NA","NA","478393","1678","1832","NA","NA","479593","479616","477324","478353","478373","morph21_Oliver/Morris","55","81400","83","yes","1920","21"
"400","","65.47619047619048","65.47619047619048","983.3333333333334","983.3333333333334","black","no","xpyriment","legacy","legacy","0","208","NA","uniform","NA","NA","NA","0","undefined","0","0","83","83","83","0","83","83","83","NA","0","83","NA","NA","0","83","NA","83","0","83","NA","NA","NA","83","0","0","NA","NA","83","83","83","83","83","84","z","Wed Apr 10 14:42:32 2024","Executes Python code","yes","m21-ba-lexicalDecision.osexp","C:\Users\ekealey\Desktop","no","mono","no","18","no","white","no","yes","1080","legacy","83","83","C:/Users/ekealey/Desktop/subject-242.csv","xpyriment","Lentiform Loewenfeld","3.3.11","0","None","space","NA","NA","NA","space","None","1200","31955","NA","NA","NA","70173","1200","2","legacy","1024","2","48000","-16","AB_m21","242","even","FILL_NW","ULNS","1678","485921","482046","484417","72019","413837","NA","NA","NA","NA","482547","NA","NA","NA","481543","NA","481517","1845","486321","NA","NA","NA","482587","1678","1832","NA","NA","483787","483813","481517","482547","482567","morph21_Oliver/Morris","55","82600","84","yes","1920","45"
"350","","64.70588235294117","64.70588235294117","985.8823529411765","985.8823529411765","black","no","xpyriment","legacy","legacy","0","206","NA","uniform","NA","NA","NA","0","undefined","0","0","84","84","84","0","84","84","84","NA","0","84","NA","NA","0","84","NA","84","0","84","NA","NA","NA","84","0","0","NA","NA","84","84","84","84","84","85","z","Wed Apr 10 14:42:32 2024","Executes Python code","yes","m21-ba-lexicalDecision.osexp","C:\Users\ekealey\Desktop","no","mono","no","18","no","white","no","yes","1080","legacy","84","84","C:/Users/ekealey/Desktop/subject-242.csv","xpyriment","Lentiform Loewenfeld","3.3.11","0","None","space","NA","NA","NA","space","None","1200","31955","NA","NA","NA","70173","1200","2","legacy","1024","2","48000","-16","AB_m21","242","even","NW_L_SIMP","WITCHISH","1678","490299","487932","484417","72019","413837","NA","NA","NA","NA","488432","NA","NA","NA","487432","NA","487406","1845","490649","NA","NA","NA","488473","1678","1832","NA","NA","489673","489696","487406","488432","488453","morph21_Oliver/Morris","55","83800","85","yes","1920","11"
"400","","63.95348837209303","63.95348837209303","988.3720930232558","988.3720930232558","black","no","xpyriment","legacy","legacy","0","205","NA","uniform","NA","NA","NA","0","undefined","0","0","85","85","85","0","85","85","85","NA","0","85","NA","NA","0","85","NA","85","0","85","NA","NA","NA","85","0","0","NA","NA","85","85","85","85","85","86","z","Wed Apr 10 14:42:32 2024","Executes Python code","yes","m21-ba-lexicalDecision.osexp","C:\Users\ekealey\Desktop","no","mono","no","18","no","white","no","yes","1080","legacy","85","85","C:/Users/ekealey/Desktop/subject-242.csv","xpyriment","Lentiform Loewenfeld","3.3.11","0","None","space","NA","NA","NA","space","None","1200","31955","NA","NA","NA","70173","1200","2","legacy","1024","2","48000","-16","AB_m21","242","even","NW_S_SIMP","URNIST","1678","494599","492231","484417","72019","413837","NA","NA","NA","NA","492731","NA","NA","NA","491730","NA","491701","1845","494999","NA","NA","NA","492772","1678","1832","NA","NA","493972","493996","491701","492731","492752","morph21_Oliver/Morris","55","85000","86","yes","1920","5"
"200","","64.36781609195403","64.36781609195403","989.1609195402299","989.1609195402299","black","no","xpyriment","legacy","legacy","0","203","NA","uniform","NA","NA","NA","1","undefined","1","0","86","86","86","0","86","86","86","NA","0","86","NA","NA","0","86","NA","86","0","86","NA","NA","NA","86","0","0","NA","NA","86","86","86","86","86","87","z","Wed Apr 10 14:42:32 2024","Executes Python code","yes","m21-ba-lexicalDecision.osexp","C:\Users\ekealey\Desktop","no","mono","no","18","no","white","no","yes","1080","legacy","86","86","C:/Users/ekealey/Desktop/subject-242.csv","xpyriment","Lentiform Loewenfeld","3.3.11","0","z","space","NA","NA","NA","space","z","1057","31955","NA","NA","NA","70173","1057","2","legacy","1024","2","48000","-16","AB_m21","242","even","NW_S_COMP","ADOPTISH","1678","500293","496563","498789","72019","413837","NA","NA","NA","NA","497063","NA","NA","NA","496062","NA","496032","1845","500493","NA","NA","NA","497104","1678","1832","NA","NA","498162","498186","496032","497063","497084","morph21_Oliver/Morris","56","86057","87","yes","1920","19"
"200","","63.63636363636363","63.63636363636363","991.5568181818181","991.5568181818181","black","no","xpyriment","legacy","legacy","0","202","NA","uniform","NA","NA","NA","0","undefined","0","0","87","87","87","0","87","87","87","NA","0","87","NA","NA","0","87","NA","87","0","87","NA","NA","NA","87","0","0","NA","NA","87","87","87","87","87","88","/","Wed Apr 10 14:42:32 2024","Executes Python code","yes","m21-ba-lexicalDecision.osexp","C:\Users\ekealey\Desktop","no","mono","no","18","no","white","no","yes","1080","legacy","87","87","C:/Users/ekealey/Desktop/subject-242.csv","xpyriment","Lentiform Loewenfeld","3.3.11","0","None","space","NA","NA","NA","space","None","1200","31955","NA","NA","NA","70173","1200","2","legacy","1024","2","48000","-16","AB_m21","242","even","CW_L","BOOTLESS","1678","504451","502083","498789","72019","413837","NA","NA","NA","NA","502583","NA","NA","NA","501583","NA","501556","1845","504651","NA","NA","NA","502624","1678","1832","NA","NA","503824","503848","501556","502583","502604","morph21_Oliver/Morris","56","87257","88","yes","1920","32"
"250","","64.04494382022472","64.04494382022472","989.3258426966293","989.3258426966293","black","no","xpyriment","legacy","legacy","0","208","NA","uniform","NA","NA","NA","1","undefined","1","0","88","88","88","0","88","88","88","NA","0","88","NA","NA","0","88","NA","88","0","88","NA","NA","NA","88","0","0","NA","NA","88","88","88","88","88","89","z","Wed Apr 10 14:42:32 2024","Executes Python code","yes","m21-ba-lexicalDecision.osexp","C:\Users\ekealey\Desktop","no","mono","no","18","no","white","no","yes","1080","legacy","88","88","C:/Users/ekealey/Desktop/subject-242.csv","xpyriment","Lentiform Loewenfeld","3.3.11","0","z","space","NA","NA","NA","space","z","793","31955","NA","NA","NA","70173","793","2","legacy","1024","2","48000","-16","AB_m21","242","even","FILL_NW","PIFTH","1678","508196","506234","498789","72019","413837","NA","NA","NA","NA","506735","NA","NA","NA","505732","NA","505707","1845","508446","NA","NA","NA","506775","1678","1832","NA","NA","507569","507593","505706","506735","506755","morph21_Oliver/Morris","57","88050","89","yes","1920","36"
"250","","64.44444444444444","64.44444444444444","985.7333333333333","985.7333333333333","black","no","xpyriment","legacy","legacy","0","208","NA","uniform","NA","NA","NA","1","undefined","1","0","89","89","89","0","89","89","89","NA","0","89","NA","NA","0","89","NA","89","0","89","NA","NA","NA","89","0","0","NA","NA","89","89","89","89","89","90","z","Wed Apr 10 14:42:32 2024","Executes Python code","yes","m21-ba-lexicalDecision.osexp","C:\Users\ekealey\Desktop","no","mono","no","18","no","white","no","yes","1080","legacy","89","89","C:/Users/ekealey/Desktop/subject-242.csv","xpyriment","Lentiform Loewenfeld","3.3.11","0","z","space","NA","NA","NA","space","z","666","31955","NA","NA","NA","70173","666","2","legacy","1024","2","48000","-16","AB_m21","242","even","FILL_NW","PHEEKS","1678","513348","510008","511844","72019","413837","NA","NA","NA","NA","510510","NA","NA","NA","509507","NA","509481","1845","513598","NA","NA","NA","510550","1678","1832","NA","NA","511217","511241","509481","510509","510530","morph21_Oliver/Morris","58","88716","90","yes","1920","35"
"250","","64.83516483516483","64.83516483516483","984.934065934066","984.934065934066","black","no","xpyriment","legacy","legacy","0","208","NA","uniform","NA","NA","NA","1","undefined","1","0","90","90","90","0","90","90","90","NA","0","90","NA","NA","0","90","NA","90","0","90","NA","NA","NA","90","0","0","NA","NA","90","90","90","90","90","91","z","Wed Apr 10 14:42:32 2024","Executes Python code","yes","m21-ba-lexicalDecision.osexp","C:\Users\ekealey\Desktop","no","mono","no","18","no","white","no","yes","1080","legacy","90","90","C:/Users/ekealey/Desktop/subject-242.csv","xpyriment","Lentiform Loewenfeld","3.3.11","0","z","space","NA","NA","NA","space","z","913","31955","NA","NA","NA","70173","913","2","legacy","1024","2","48000","-16","AB_m21","242","even","FILL_NW","BUWL","1678","517253","515171","511844","72019","413837","NA","NA","NA","NA","515671","NA","NA","NA","514671","NA","514643","1845","517503","NA","NA","NA","515711","1678","1832","NA","NA","516625","516650","514643","515671","515691","morph21_Oliver/Morris","59","89629","91","yes","1920","9"
