"ITI","_prepare","acc","accuracy","average_response_time","avg_rt","background","bidi","canvas_backend","clock_backend","color_backend","compensation","cond_trig","condtrigtime","coordinates","coroutines_cycles","coroutines_duration","coroutines_mean_cycle_duration","correct","correct_instructions_1","correct_new_keyboard_response_1","count_AB_m21","count_ITI","count_blank_screen","count_blink_screen","count_block1","count_break1","count_break2","count_break3_1","count_canvas","count_close_port","count_cond_trigger","count_correct_trigger","count_def_chain","count_end_screen","count_fixation_1","count_getting_started","count_inc_counter","count_instructions_1","count_logger","count_logscript","count_new_inline_script","count_new_inline_script_2","count_new_keyboard_response_1","count_open_port","count_reset_counter_prep","count_reset_counter_run","count_reset_counter_run_1","count_response_trigger_trial","count_responsescreen","count_sequence","count_target_present","count_word_trigger","counter","cresp","datetime","description","disable_garbage_collection","experiment_file","experiment_path","font_bold","font_family","font_italic","font_size","font_underline","foreground","form_clicks","fullscreen","height","keyboard_backend","live_row","live_row_block1","logfile","mouse_backend","opensesame_codename","opensesame_version","repeat_cycle","response","response_break1","response_break2","response_break3_1","response_end_screen","response_instructions_1","response_new_keyboard_response_1","response_time","response_time_break1","response_time_break2","response_time_break3_1","response_time_end_screen","response_time_instructions_1","response_time_new_keyboard_response_1","round_decimals","sampler_backend","sound_buf_size","sound_channels","sound_freq","sound_sample_size","start","subject_nr","subject_parity","targ_type","target","time_AB_m21","time_ITI","time_blank_screen","time_blink_screen","time_block1","time_break1","time_break2","time_break3_1","time_canvas","time_close_port","time_cond_trigger","time_correct_trigger","time_def_chain","time_end_screen","time_fixation_1","time_getting_started","time_inc_counter","time_instructions_1","time_logger","time_logscript","time_new_inline_script","time_new_inline_script_2","time_new_keyboard_response_1","time_open_port","time_reset_counter_prep","time_reset_counter_run","time_reset_counter_run_1","time_response_trigger_trial","time_responsescreen","time_sequence","time_target_present","time_word_trigger","title","total_correct","total_response_time","total_responses","uniform_coordinates","width","word_trig"
"250","","0","0","1200","1200","black","no","xpyriment","legacy","legacy","0","202","NA","uniform","NA","NA","NA","0","undefined","0","0","0","0","0","0","0","0","0","NA","0","0","NA","NA","0","0","NA","0","0","0","NA","NA","NA","0","0","0","NA","NA","0","0","0","0","0","1","/","Tue Dec 12 13:34:13 2023","Executes Python code","yes","m21-ba-lexicalDecision.osexp","C:\Users\ekealey\Desktop","no","mono","no","18","no","white","no","yes","1080","legacy","0","0","C:/Users/ekealey/Desktop/subject-234.csv","xpyriment","Lentiform Loewenfeld","3.3.11","0","None","NA","NA","NA","NA","space","None","1200","NA","NA","NA","NA","29868","1200","2","legacy","1024","2","48000","-16","AB_m21","234","even","CW_L","PUSHER","1755","36112","33744","NA","31793","NA","NA","NA","NA","NA","34245","NA","NA","NA","33242","NA","33207","1924","36362","NA","NA","NA","34285","1755","1913","NA","NA","35485","35509","33207","34244","34265","morph21_Oliver/Morris","0","1200","1","yes","1920","13"
"400","","50","50","996","996","black","no","xpyriment","legacy","legacy","0","207","NA","uniform","NA","NA","NA","1","undefined","1","0","1","1","1","0","1","1","1","NA","0","1","NA","NA","0","1","NA","1","0","1","NA","NA","NA","1","0","0","NA","NA","1","1","1","1","1","2","/","Tue Dec 12 13:34:13 2023","Executes Python code","yes","m21-ba-lexicalDecision.osexp","C:\Users\ekealey\Desktop","no","mono","no","18","no","white","no","yes","1080","legacy","1","1","C:/Users/ekealey/Desktop/subject-234.csv","xpyriment","Lentiform Loewenfeld","3.3.11","0","/","NA","NA","NA","NA","space","/","792","NA","NA","NA","NA","29868","792","2","legacy","1024","2","48000","-16","AB_m21","234","even","FILL_W","CRUNCH","1755","39892","37931","NA","31793","NA","NA","NA","NA","NA","38431","NA","NA","NA","37430","NA","37396","1924","40292","NA","NA","NA","38472","1755","1913","NA","NA","39265","39288","37396","38431","38452","morph21_Oliver/Morris","1","1992","2","yes","1920","20"
"250","","66.66666666666667","66.66666666666667","893","893","black","no","xpyriment","legacy","legacy","0","201","NA","uniform","NA","NA","NA","1","undefined","1","0","2","2","2","0","2","2","2","NA","0","2","NA","NA","0","2","NA","2","0","2","NA","NA","NA","2","0","0","NA","NA","2","2","2","2","2","3","/","Tue Dec 12 13:34:13 2023","Executes Python code","yes","m21-ba-lexicalDecision.osexp","C:\Users\ekealey\Desktop","no","mono","no","18","no","white","no","yes","1080","legacy","2","2","C:/Users/ekealey/Desktop/subject-234.csv","xpyriment","Lentiform Loewenfeld","3.3.11","0","/","NA","NA","NA","NA","space","/","687","NA","NA","NA","NA","29868","687","2","legacy","1024","2","48000","-16","AB_m21","234","even","CW_S","PLANNER","1755","45244","41883","43740","31793","NA","NA","NA","NA","NA","42384","NA","NA","NA","41383","NA","41355","1924","45494","NA","NA","NA","42424","1755","1913","NA","NA","43112","43135","41355","42384","42404","morph21_Oliver/Morris","2","2679","3","yes","1920","22"
"200","","75","75","863.25","863.25","black","no","xpyriment","legacy","legacy","0","208","NA","uniform","NA","NA","NA","1","undefined","1","0","3","3","3","0","3","3","3","NA","0","3","NA","NA","0","3","NA","3","0","3","NA","NA","NA","3","0","0","NA","NA","3","3","3","3","3","4","z","Tue Dec 12 13:34:13 2023","Executes Python code","yes","m21-ba-lexicalDecision.osexp","C:\Users\ekealey\Desktop","no","mono","no","18","no","white","no","yes","1080","legacy","3","3","C:/Users/ekealey/Desktop/subject-234.csv","xpyriment","Lentiform Loewenfeld","3.3.11","0","z","NA","NA","NA","NA","space","z","774","NA","NA","NA","NA","29868","774","2","legacy","1024","2","48000","-16","AB_m21","234","even","FILL_NW","PORDS","1755","49019","47075","43740","31793","NA","NA","NA","NA","NA","47576","NA","NA","NA","46574","NA","46547","1924","49219","NA","NA","NA","47617","1755","1913","NA","NA","48392","48415","46547","47576","47597","morph21_Oliver/Morris","3","3453","4","yes","1920","39"
"300","","60","60","930.6","930.6","black","no","xpyriment","legacy","legacy","0","205","NA","uniform","NA","NA","NA","0","undefined","0","0","4","4","4","0","4","4","4","NA","0","4","NA","NA","0","4","NA","4","0","4","NA","NA","NA","4","0","0","NA","NA","4","4","4","4","4","5","z","Tue Dec 12 13:34:13 2023","Executes Python code","yes","m21-ba-lexicalDecision.osexp","C:\Users\ekealey\Desktop","no","mono","no","18","no","white","no","yes","1080","legacy","4","4","C:/Users/ekealey/Desktop/subject-234.csv","xpyriment","Lentiform Loewenfeld","3.3.11","0","None","NA","NA","NA","NA","space","None","1200","NA","NA","NA","NA","29868","1200","2","legacy","1024","2","48000","-16","AB_m21","234","even","NW_S_SIMP","WARNORY","1755","53147","50778","43740","31793","NA","NA","NA","NA","NA","51279","NA","NA","NA","50278","NA","50251","1924","53447","NA","NA","NA","51320","1755","1913","NA","NA","52520","52544","50251","51279","51300","morph21_Oliver/Morris","3","4653","5","yes","1920","12"
"400","","50","50","975.5","975.5","black","no","xpyriment","legacy","legacy","0","208","NA","uniform","NA","NA","NA","0","undefined","0","0","5","5","5","0","5","5","5","NA","0","5","NA","NA","0","5","NA","5","0","5","NA","NA","NA","5","0","0","NA","NA","5","5","5","5","5","6","z","Tue Dec 12 13:34:13 2023","Executes Python code","yes","m21-ba-lexicalDecision.osexp","C:\Users\ekealey\Desktop","no","mono","no","18","no","white","no","yes","1080","legacy","5","5","C:/Users/ekealey/Desktop/subject-234.csv","xpyriment","Lentiform Loewenfeld","3.3.11","0","None","NA","NA","NA","NA","space","None","1200","NA","NA","NA","NA","29868","1200","2","legacy","1024","2","48000","-16","AB_m21","234","even","FILL_NW","ULNS","1755","58883","55011","57378","31793","NA","NA","NA","NA","NA","55512","NA","NA","NA","54510","NA","54482","1924","59283","NA","NA","NA","55552","1755","1913","NA","NA","56752","56775","54482","55512","55532","morph21_Oliver/Morris","3","5853","6","yes","1920","45"
"300","","42.857142857142854","42.857142857142854","1007.5714285714286","1007.5714285714286","black","no","xpyriment","legacy","legacy","0","208","NA","uniform","NA","NA","NA","0","undefined","0","0","6","6","6","0","6","6","6","NA","0","6","NA","NA","0","6","NA","6","0","6","NA","NA","NA","6","0","0","NA","NA","6","6","6","6","6","7","z","Tue Dec 12 13:34:13 2023","Executes Python code","yes","m21-ba-lexicalDecision.osexp","C:\Users\ekealey\Desktop","no","mono","no","18","no","white","no","yes","1080","legacy","6","6","C:/Users/ekealey/Desktop/subject-234.csv","xpyriment","Lentiform Loewenfeld","3.3.11","0","None","NA","NA","NA","NA","space","None","1200","NA","NA","NA","NA","29868","1200","2","legacy","1024","2","48000","-16","AB_m21","234","even","FILL_NW","HEEM","1755","63220","60852","57378","31793","NA","NA","NA","NA","NA","61352","NA","NA","NA","60351","NA","60320","1924","63520","NA","NA","NA","61392","1755","1913","NA","NA","62592","62616","60320","61352","61372","morph21_Oliver/Morris","3","7053","7","yes","1920","27"
"400","","50","50","1007.375","1007.375","black","no","xpyriment","legacy","legacy","0","208","NA","uniform","NA","NA","NA","1","undefined","1","0","7","7","7","0","7","7","7","NA","0","7","NA","NA","0","7","NA","7","0","7","NA","NA","NA","7","0","0","NA","NA","7","7","7","7","7","8","z","Tue Dec 12 13:34:13 2023","Executes Python code","yes","m21-ba-lexicalDecision.osexp","C:\Users\ekealey\Desktop","no","mono","no","18","no","white","no","yes","1080","legacy","7","7","C:/Users/ekealey/Desktop/subject-234.csv","xpyriment","Lentiform Loewenfeld","3.3.11","0","z","NA","NA","NA","NA","space","z","1006","NA","NA","NA","NA","29868","1006","2","legacy","1024","2","48000","-16","AB_m21","234","even","FILL_NW","FROES","1755","67260","65085","57378","31793","NA","NA","NA","NA","NA","65585","NA","NA","NA","64584","NA","64556","1924","67660","NA","NA","NA","65626","1755","1913","NA","NA","66632","66656","64556","65585","65605","morph21_Oliver/Morris","4","8059","8","yes","1920","21"
"300","","44.44444444444444","44.44444444444444","973.7777777777778","973.7777777777778","black","no","xpyriment","legacy","legacy","0","206","NA","uniform","NA","NA","NA","0","undefined","0","0","8","8","8","0","8","8","8","NA","0","8","NA","NA","0","8","NA","8","0","8","NA","NA","NA","8","0","0","NA","NA","8","8","8","8","8","9","z","Tue Dec 12 13:34:13 2023","Executes Python code","yes","m21-ba-lexicalDecision.osexp","C:\Users\ekealey\Desktop","no","mono","no","18","no","white","no","yes","1080","legacy","8","8","C:/Users/ekealey/Desktop/subject-234.csv","xpyriment","Lentiform Loewenfeld","3.3.11","0","/","NA","NA","NA","NA","space","/","705","NA","NA","NA","NA","29868","705","2","legacy","1024","2","48000","-16","AB_m21","234","even","NW_L_SIMP","BANDARY","1755","72595","69217","71091","31793","NA","NA","NA","NA","NA","69717","NA","NA","NA","68717","NA","68689","1924","72895","NA","NA","NA","69758","1755","1913","NA","NA","70464","70488","68689","69717","69738","morph21_Oliver/Morris","4","8764","9","yes","1920","3"
"300","","50","50","945.7","945.7","black","no","xpyriment","legacy","legacy","0","207","NA","uniform","NA","NA","NA","1","undefined","1","0","9","9","9","0","9","9","9","NA","0","9","NA","NA","0","9","NA","9","0","9","NA","NA","NA","9","0","0","NA","NA","9","9","9","9","9","10","/","Tue Dec 12 13:34:13 2023","Executes Python code","yes","m21-ba-lexicalDecision.osexp","C:\Users\ekealey\Desktop","no","mono","no","18","no","white","no","yes","1080","legacy","9","9","C:/Users/ekealey/Desktop/subject-234.csv","xpyriment","Lentiform Loewenfeld","3.3.11","0","/","NA","NA","NA","NA","space","/","693","NA","NA","NA","NA","29868","693","2","legacy","1024","2","48000","-16","AB_m21","234","even","FILL_W","MOURN","1755","76348","74485","71091","31793","NA","NA","NA","NA","NA","74985","NA","NA","NA","73985","NA","73955","1924","76648","NA","NA","NA","75026","1755","1913","NA","NA","75720","75744","73955","74985","75006","morph21_Oliver/Morris","5","9457","10","yes","1920","26"
"400","","45.45454545454545","45.45454545454545","968.8181818181819","968.8181818181819","black","no","xpyriment","legacy","legacy","0","203","NA","uniform","NA","NA","NA","0","undefined","0","0","10","10","10","0","10","10","10","NA","0","10","NA","NA","0","10","NA","10","0","10","NA","NA","NA","10","0","0","NA","NA","10","10","10","10","10","11","z","Tue Dec 12 13:34:13 2023","Executes Python code","yes","m21-ba-lexicalDecision.osexp","C:\Users\ekealey\Desktop","no","mono","no","18","no","white","no","yes","1080","legacy","10","10","C:/Users/ekealey/Desktop/subject-234.csv","xpyriment","Lentiform Loewenfeld","3.3.11","0","None","NA","NA","NA","NA","space","None","1200","NA","NA","NA","NA","29868","1200","2","legacy","1024","2","48000","-16","AB_m21","234","even","NW_S_COMP","ALTARIG","1755","80579","78208","71091","31793","NA","NA","NA","NA","NA","78710","NA","NA","NA","77706","NA","77680","1924","80979","NA","NA","NA","78751","1755","1913","NA","NA","79951","79976","77680","78710","78730","morph21_Oliver/Morris","5","10657","11","yes","1920","7"
"250","","50","50","936.3333333333334","936.3333333333334","black","no","xpyriment","legacy","legacy","0","207","NA","uniform","NA","NA","NA","1","undefined","1","0","11","11","11","0","11","11","11","NA","0","11","NA","NA","0","11","NA","11","0","11","NA","NA","NA","11","0","0","NA","NA","11","11","11","11","11","12","/","Tue Dec 12 13:34:13 2023","Executes Python code","yes","m21-ba-lexicalDecision.osexp","C:\Users\ekealey\Desktop","no","mono","no","18","no","white","no","yes","1080","legacy","11","11","C:/Users/ekealey/Desktop/subject-234.csv","xpyriment","Lentiform Loewenfeld","3.3.11","0","/","NA","NA","NA","NA","space","/","579","NA","NA","NA","NA","29868","579","2","legacy","1024","2","48000","-16","AB_m21","234","even","FILL_W","SUIT","1755","85804","82553","84300","31793","NA","NA","NA","NA","NA","83053","NA","NA","NA","82053","NA","82025","1924","86055","NA","NA","NA","83093","1755","1913","NA","NA","83673","83696","82025","83053","83073","morph21_Oliver/Morris","6","11236","12","yes","1920","49"
"350","","53.84615384615385","53.84615384615385","929","929","black","no","xpyriment","legacy","legacy","0","208","NA","uniform","NA","NA","NA","1","undefined","1","0","12","12","12","0","12","12","12","NA","0","12","NA","NA","0","12","NA","12","0","12","NA","NA","NA","12","0","0","NA","NA","12","12","12","12","12","13","z","Tue Dec 12 13:34:13 2023","Executes Python code","yes","m21-ba-lexicalDecision.osexp","C:\Users\ekealey\Desktop","no","mono","no","18","no","white","no","yes","1080","legacy","12","12","C:/Users/ekealey/Desktop/subject-234.csv","xpyriment","Lentiform Loewenfeld","3.3.11","0","z","NA","NA","NA","NA","space","z","841","NA","NA","NA","NA","29868","841","2","legacy","1024","2","48000","-16","AB_m21","234","even","FILL_NW","HEAS","1755","89627","87617","84300","31793","NA","NA","NA","NA","NA","88118","NA","NA","NA","87117","NA","87086","1924","89977","NA","NA","NA","88158","1755","1913","NA","NA","89000","89024","87086","88118","88138","morph21_Oliver/Morris","7","12077","13","yes","1920","26"
"400","","57.142857142857146","57.142857142857146","904.8571428571429","904.8571428571429","black","no","xpyriment","legacy","legacy","0","207","NA","uniform","NA","NA","NA","1","undefined","1","0","13","13","13","0","13","13","13","NA","0","13","NA","NA","0","13","NA","13","0","13","NA","NA","NA","13","0","0","NA","NA","13","13","13","13","13","14","/","Tue Dec 12 13:34:13 2023","Executes Python code","yes","m21-ba-lexicalDecision.osexp","C:\Users\ekealey\Desktop","no","mono","no","18","no","white","no","yes","1080","legacy","13","13","C:/Users/ekealey/Desktop/subject-234.csv","xpyriment","Lentiform Loewenfeld","3.3.11","0","/","NA","NA","NA","NA","space","/","591","NA","NA","NA","NA","29868","591","2","legacy","1024","2","48000","-16","AB_m21","234","even","FILL_W","FLIRT","1755","93292","91531","84300","31793","NA","NA","NA","NA","NA","92032","NA","NA","NA","91029","NA","91005","1924","93692","NA","NA","NA","92073","1755","1913","NA","NA","92664","92688","91005","92032","92053","morph21_Oliver/Morris","8","12668","14","yes","1920","1"
"250","","53.333333333333336","53.333333333333336","886.8666666666667","886.8666666666667","black","no","xpyriment","legacy","legacy","0","206","NA","uniform","NA","NA","NA","0","undefined","0","0","14","14","14","0","14","14","14","NA","0","14","NA","NA","0","14","NA","14","0","14","NA","NA","NA","14","0","0","NA","NA","14","14","14","14","14","15","z","Tue Dec 12 13:34:13 2023","Executes Python code","yes","m21-ba-lexicalDecision.osexp","C:\Users\ekealey\Desktop","no","mono","no","18","no","white","no","yes","1080","legacy","14","14","C:/Users/ekealey/Desktop/subject-234.csv","xpyriment","Lentiform Loewenfeld","3.3.11","0","/","NA","NA","NA","NA","space","/","635","NA","NA","NA","NA","29868","635","2","legacy","1024","2","48000","-16","AB_m21","234","even","NW_L_SIMP","SMOOTHFUL","1755","98582","95270","97077","31793","NA","NA","NA","NA","NA","95773","NA","NA","NA","94770","NA","94744","1924","98832","NA","NA","NA","95813","1755","1913","NA","NA","96448","96472","94744","95772","95793","morph21_Oliver/Morris","8","13303","15","yes","1920","19"
"350","","56.25","56.25","894.625","894.625","black","no","xpyriment","legacy","legacy","0","207","NA","uniform","NA","NA","NA","1","undefined","1","0","15","15","15","0","15","15","15","NA","0","15","NA","NA","0","15","NA","15","0","15","NA","NA","NA","15","0","0","NA","NA","15","15","15","15","15","16","/","Tue Dec 12 13:34:13 2023","Executes Python code","yes","m21-ba-lexicalDecision.osexp","C:\Users\ekealey\Desktop","no","mono","no","18","no","white","no","yes","1080","legacy","15","15","C:/Users/ekealey/Desktop/subject-234.csv","xpyriment","Lentiform Loewenfeld","3.3.11","0","/","NA","NA","NA","NA","space","/","1011","NA","NA","NA","NA","29868","1011","2","legacy","1024","2","48000","-16","AB_m21","234","even","FILL_W","LIFT","1755","102572","100392","97077","31793","NA","NA","NA","NA","NA","100892","NA","NA","NA","99892","NA","99859","1924","102923","NA","NA","NA","100932","1755","1913","NA","NA","101943","101968","99859","100892","100912","morph21_Oliver/Morris","9","14314","16","yes","1920","39"
"350","","58.8235294117647","58.8235294117647","901.4705882352941","901.4705882352941","black","no","xpyriment","legacy","legacy","0","204","NA","uniform","NA","NA","NA","1","undefined","1","0","16","16","16","0","16","16","16","NA","0","16","NA","NA","0","16","NA","16","0","16","NA","NA","NA","16","0","0","NA","NA","16","16","16","16","16","17","z","Tue Dec 12 13:34:13 2023","Executes Python code","yes","m21-ba-lexicalDecision.osexp","C:\Users\ekealey\Desktop","no","mono","no","18","no","white","no","yes","1080","legacy","16","16","C:/Users/ekealey/Desktop/subject-234.csv","xpyriment","Lentiform Loewenfeld","3.3.11","0","z","NA","NA","NA","NA","space","z","1011","NA","NA","NA","NA","29868","1011","2","legacy","1024","2","48000","-16","AB_m21","234","even","NW_L_COMP","AGREELA","1755","106730","104551","97077","31793","NA","NA","NA","NA","NA","105051","NA","NA","NA","104050","NA","104023","1924","107080","NA","NA","NA","105092","1755","1913","NA","NA","106104","106127","104023","105051","105072","morph21_Oliver/Morris","10","15325","17","yes","1920","24"
"200","","55.55555555555556","55.55555555555556","918.0555555555555","918.0555555555555","black","no","xpyriment","legacy","legacy","0","205","NA","uniform","NA","NA","NA","0","undefined","0","0","17","17","17","0","17","17","17","NA","0","17","NA","NA","0","17","NA","17","0","17","NA","NA","NA","17","0","0","NA","NA","17","17","17","17","17","18","z","Tue Dec 12 13:34:13 2023","Executes Python code","yes","m21-ba-lexicalDecision.osexp","C:\Users\ekealey\Desktop","no","mono","no","18","no","white","no","yes","1080","legacy","17","17","C:/Users/ekealey/Desktop/subject-234.csv","xpyriment","Lentiform Loewenfeld","3.3.11","0","None","NA","NA","NA","NA","space","None","1200","NA","NA","NA","NA","29868","1200","2","legacy","1024","2","48000","-16","AB_m21","234","even","NW_S_SIMP","THRILLANCE","1755","112551","108679","111047","31793","NA","NA","NA","NA","NA","109179","NA","NA","NA","108178","NA","108149","1924","112752","NA","NA","NA","109220","1755","1913","NA","NA","110420","110444","108149","109179","109199","morph21_Oliver/Morris","10","16525","18","yes","1920","22"
"250","","57.89473684210526","57.89473684210526","905.7894736842105","905.7894736842105","black","no","xpyriment","legacy","legacy","0","202","NA","uniform","NA","NA","NA","1","undefined","1","0","18","18","18","0","18","18","18","NA","0","18","NA","NA","0","18","NA","18","0","18","NA","NA","NA","18","0","0","NA","NA","18","18","18","18","18","19","/","Tue Dec 12 13:34:13 2023","Executes Python code","yes","m21-ba-lexicalDecision.osexp","C:\Users\ekealey\Desktop","no","mono","no","18","no","white","no","yes","1080","legacy","18","18","C:/Users/ekealey/Desktop/subject-234.csv","xpyriment","Lentiform Loewenfeld","3.3.11","0","/","NA","NA","NA","NA","space","/","685","NA","NA","NA","NA","29868","685","2","legacy","1024","2","48000","-16","AB_m21","234","even","CW_L","DREAMER","1755","116197","114341","111047","31793","NA","NA","NA","NA","NA","114843","NA","NA","NA","113839","NA","113812","1924","116447","NA","NA","NA","114883","1755","1913","NA","NA","115569","115593","113812","114843","114863","morph21_Oliver/Morris","11","17210","19","yes","1920","12"
"350","","55","55","920.5","920.5","black","no","xpyriment","legacy","legacy","0","205","NA","uniform","NA","NA","NA","0","undefined","0","0","19","19","19","0","19","19","19","NA","0","19","NA","NA","0","19","NA","19","0","19","NA","NA","NA","19","0","0","NA","NA","19","19","19","19","19","20","z","Tue Dec 12 13:34:13 2023","Executes Python code","yes","m21-ba-lexicalDecision.osexp","C:\Users\ekealey\Desktop","no","mono","no","18","no","white","no","yes","1080","legacy","19","19","C:/Users/ekealey/Desktop/subject-234.csv","xpyriment","Lentiform Loewenfeld","3.3.11","0","None","NA","NA","NA","NA","space","None","1200","NA","NA","NA","NA","29868","1200","2","legacy","1024","2","48000","-16","AB_m21","234","even","NW_S_SIMP","ACREMENT","1755","120365","117998","111047","31793","NA","NA","NA","NA","NA","118498","NA","NA","NA","117498","NA","117469","1924","120715","NA","NA","NA","118539","1755","1913","NA","NA","119739","119762","117469","118498","118519","morph21_Oliver/Morris","11","18410","20","yes","1920","16"
"400","","57.142857142857146","57.142857142857146","920.3333333333334","920.3333333333334","black","no","xpyriment","legacy","legacy","0","202","NA","uniform","NA","NA","NA","1","undefined","1","0","20","20","20","0","20","20","20","NA","0","20","NA","NA","0","20","NA","20","0","20","NA","NA","NA","20","0","0","NA","NA","20","20","20","20","20","21","/","Tue Dec 12 13:34:13 2023","Executes Python code","yes","m21-ba-lexicalDecision.osexp","C:\Users\ekealey\Desktop","no","mono","no","18","no","white","no","yes","1080","legacy","20","20","C:/Users/ekealey/Desktop/subject-234.csv","xpyriment","Lentiform Loewenfeld","3.3.11","0","/","NA","NA","NA","NA","space","/","917","NA","NA","NA","NA","29868","917","2","legacy","1024","2","48000","-16","AB_m21","234","even","CW_L","SHAPELY","1755","125852","122260","124347","31793","NA","NA","NA","NA","NA","122760","NA","NA","NA","121760","NA","121730","1924","126252","NA","NA","NA","122802","1755","1913","NA","NA","123720","123743","121730","122760","122782","morph21_Oliver/Morris","12","19327","21","yes","1920","35"
"300","","59.09090909090909","59.09090909090909","911.9545454545455","911.9545454545455","black","no","xpyriment","legacy","legacy","0","204","NA","uniform","NA","NA","NA","1","undefined","1","0","21","21","21","0","21","21","21","NA","0","21","NA","NA","0","21","NA","21","0","21","NA","NA","NA","21","0","0","NA","NA","21","21","21","21","21","22","z","Tue Dec 12 13:34:13 2023","Executes Python code","yes","m21-ba-lexicalDecision.osexp","C:\Users\ekealey\Desktop","no","mono","no","18","no","white","no","yes","1080","legacy","21","21","C:/Users/ekealey/Desktop/subject-234.csv","xpyriment","Lentiform Loewenfeld","3.3.11","0","z","NA","NA","NA","NA","space","z","736","NA","NA","NA","NA","29868","736","2","legacy","1024","2","48000","-16","AB_m21","234","even","NW_L_COMP","FELLOWOES","1755","129748","127843","124347","31793","NA","NA","NA","NA","NA","128343","NA","NA","NA","127343","NA","127316","1924","130048","NA","NA","NA","128384","1755","1913","NA","NA","129120","129144","127316","128343","128363","morph21_Oliver/Morris","13","20063","22","yes","1920","17"
"300","","60.869565217391305","60.869565217391305","923.0434782608696","923.0434782608696","black","no","xpyriment","legacy","legacy","0","202","NA","uniform","NA","NA","NA","1","undefined","1","0","22","22","22","0","22","22","22","NA","0","22","NA","NA","0","22","NA","22","0","22","NA","NA","NA","22","0","0","NA","NA","22","22","22","22","22","23","/","Tue Dec 12 13:34:13 2023","Executes Python code","yes","m21-ba-lexicalDecision.osexp","C:\Users\ekealey\Desktop","no","mono","no","18","no","white","no","yes","1080","legacy","22","22","C:/Users/ekealey/Desktop/subject-234.csv","xpyriment","Lentiform Loewenfeld","3.3.11","0","/","NA","NA","NA","NA","space","/","1167","NA","NA","NA","NA","29868","1167","2","legacy","1024","2","48000","-16","AB_m21","234","even","CW_L","WEEDY","1755","133932","131596","124347","31793","NA","NA","NA","NA","NA","132096","NA","NA","NA","131096","NA","131067","1924","134232","NA","NA","NA","132137","1755","1913","NA","NA","133304","133328","131067","132096","132117","morph21_Oliver/Morris","14","21230","23","yes","1920","48"
"200","","62.5","62.5","932.0416666666666","932.0416666666666","black","no","xpyriment","legacy","legacy","0","205","NA","uniform","NA","NA","NA","1","undefined","1","0","23","23","23","0","23","23","23","NA","0","23","NA","NA","0","23","NA","23","0","23","NA","NA","NA","23","0","0","NA","NA","23","23","23","23","23","24","z","Tue Dec 12 13:34:13 2023","Executes Python code","yes","m21-ba-lexicalDecision.osexp","C:\Users\ekealey\Desktop","no","mono","no","18","no","white","no","yes","1080","legacy","23","23","C:/Users/ekealey/Desktop/subject-234.csv","xpyriment","Lentiform Loewenfeld","3.3.11","0","z","NA","NA","NA","NA","space","z","1139","NA","NA","NA","NA","29868","1139","2","legacy","1024","2","48000","-16","AB_m21","234","even","NW_S_SIMP","GUMFUL","1755","139620","135805","138115","31793","NA","NA","NA","NA","NA","136308","NA","NA","NA","135304","NA","135280","1924","139820","NA","NA","NA","136348","1755","1913","NA","NA","137488","137512","135280","136307","136328","morph21_Oliver/Morris","15","22369","24","yes","1920","2"
"350","","64","64","928.6","928.6","black","no","xpyriment","legacy","legacy","0","208","NA","uniform","NA","NA","NA","1","undefined","1","0","24","24","24","0","24","24","24","NA","0","24","NA","NA","0","24","NA","24","0","24","NA","NA","NA","24","0","0","NA","NA","24","24","24","24","24","25","z","Tue Dec 12 13:34:13 2023","Executes Python code","yes","m21-ba-lexicalDecision.osexp","C:\Users\ekealey\Desktop","no","mono","no","18","no","white","no","yes","1080","legacy","24","24","C:/Users/ekealey/Desktop/subject-234.csv","xpyriment","Lentiform Loewenfeld","3.3.11","0","z","NA","NA","NA","NA","space","z","846","NA","NA","NA","NA","29868","846","2","legacy","1024","2","48000","-16","AB_m21","234","even","FILL_NW","DELP","1755","143412","141396","138115","31793","NA","NA","NA","NA","NA","141897","NA","NA","NA","140896","NA","140863","1924","143763","NA","NA","NA","141938","1755","1913","NA","NA","142784","142808","140863","141897","141918","morph21_Oliver/Morris","16","23215","25","yes","1920","14"
"400","","61.53846153846154","61.53846153846154","931.5","931.5","black","no","xpyriment","legacy","legacy","0","208","NA","uniform","NA","NA","NA","0","undefined","0","0","25","25","25","0","25","25","25","NA","0","25","NA","NA","0","25","NA","25","0","25","NA","NA","NA","25","0","0","NA","NA","25","25","25","25","25","26","z","Tue Dec 12 13:34:13 2023","Executes Python code","yes","m21-ba-lexicalDecision.osexp","C:\Users\ekealey\Desktop","no","mono","no","18","no","white","no","yes","1080","legacy","25","25","C:/Users/ekealey/Desktop/subject-234.csv","xpyriment","Lentiform Loewenfeld","3.3.11","0","/","NA","NA","NA","NA","space","/","1004","NA","NA","NA","NA","29868","1004","2","legacy","1024","2","48000","-16","AB_m21","234","even","FILL_NW","VELT","1755","147491","145318","138115","31793","NA","NA","NA","NA","NA","145818","NA","NA","NA","144818","NA","144788","1924","147891","NA","NA","NA","145859","1755","1913","NA","NA","146864","146888","144788","145818","145839","morph21_Oliver/Morris","16","24219","26","yes","1920","46"
"200","","62.96296296296296","62.96296296296296","929.6666666666666","929.6666666666666","black","no","xpyriment","legacy","legacy","0","208","NA","uniform","NA","NA","NA","1","undefined","1","0","26","26","26","0","26","26","26","NA","0","26","NA","NA","0","26","NA","26","0","26","NA","NA","NA","26","0","0","NA","NA","26","26","26","26","26","27","z","Tue Dec 12 13:34:13 2023","Executes Python code","yes","m21-ba-lexicalDecision.osexp","C:\Users\ekealey\Desktop","no","mono","no","18","no","white","no","yes","1080","legacy","26","26","C:/Users/ekealey/Desktop/subject-234.csv","xpyriment","Lentiform Loewenfeld","3.3.11","0","z","NA","NA","NA","NA","space","z","882","NA","NA","NA","NA","29868","882","2","legacy","1024","2","48000","-16","AB_m21","234","even","FILL_NW","TUEER","1755","153013","149456","151509","31793","NA","NA","NA","NA","NA","149956","NA","NA","NA","148956","NA","148926","1924","153213","NA","NA","NA","149997","1755","1913","NA","NA","150879","150904","148926","149956","149977","morph21_Oliver/Morris","17","25101","27","yes","1920","44"
"200","","60.714285714285715","60.714285714285715","939.3214285714286","939.3214285714286","black","no","xpyriment","legacy","legacy","0","208","NA","uniform","NA","NA","NA","0","undefined","0","0","27","27","27","0","27","27","27","NA","0","27","NA","NA","0","27","NA","27","0","27","NA","NA","NA","27","0","0","NA","NA","27","27","27","27","27","28","z","Tue Dec 12 13:34:13 2023","Executes Python code","yes","m21-ba-lexicalDecision.osexp","C:\Users\ekealey\Desktop","no","mono","no","18","no","white","no","yes","1080","legacy","27","27","C:/Users/ekealey/Desktop/subject-234.csv","xpyriment","Lentiform Loewenfeld","3.3.11","0","None","NA","NA","NA","NA","space","None","1200","NA","NA","NA","NA","29868","1200","2","legacy","1024","2","48000","-16","AB_m21","234","even","FILL_NW","GAIRS","1755","157187","154819","151509","31793","NA","NA","NA","NA","NA","155319","NA","NA","NA","154319","NA","154292","1924","157388","NA","NA","NA","155360","1755","1913","NA","NA","156560","156584","154292","155319","155340","morph21_Oliver/Morris","17","26301","28","yes","1920","23"
"400","","62.06896551724138","62.06896551724138","933.7931034482758","933.7931034482758","black","no","xpyriment","legacy","legacy","0","201","NA","uniform","NA","NA","NA","1","undefined","1","0","28","28","28","0","28","28","28","NA","0","28","NA","NA","0","28","NA","28","0","28","NA","NA","NA","28","0","0","NA","NA","28","28","28","28","28","29","/","Tue Dec 12 13:34:13 2023","Executes Python code","yes","m21-ba-lexicalDecision.osexp","C:\Users\ekealey\Desktop","no","mono","no","18","no","white","no","yes","1080","legacy","28","28","C:/Users/ekealey/Desktop/subject-234.csv","xpyriment","Lentiform Loewenfeld","3.3.11","0","/","NA","NA","NA","NA","space","/","779","NA","NA","NA","NA","29868","779","2","legacy","1024","2","48000","-16","AB_m21","234","even","CW_S","WIDOWED","1755","160910","158958","151509","31793","NA","NA","NA","NA","NA","159459","NA","NA","NA","158458","NA","158428","1924","161310","NA","NA","NA","159500","1755","1913","NA","NA","160280","160306","158428","159459","159480","morph21_Oliver/Morris","18","27080","29","yes","1920","7"
"300","","63.333333333333336","63.333333333333336","932.8333333333334","932.8333333333334","black","no","xpyriment","legacy","legacy","0","206","NA","uniform","NA","NA","NA","1","undefined","1","0","29","29","29","0","29","29","29","NA","0","29","NA","NA","0","29","NA","29","0","29","NA","NA","NA","29","0","0","NA","NA","29","29","29","29","29","30","z","Tue Dec 12 13:34:13 2023","Executes Python code","yes","m21-ba-lexicalDecision.osexp","C:\Users\ekealey\Desktop","no","mono","no","18","no","white","no","yes","1080","legacy","29","29","C:/Users/ekealey/Desktop/subject-234.csv","xpyriment","Lentiform Loewenfeld","3.3.11","0","z","NA","NA","NA","NA","space","z","905","NA","NA","NA","NA","29868","905","2","legacy","1024","2","48000","-16","AB_m21","234","even","NW_L_SIMP","PRAYANCE","1755","166438","162858","164932","31793","NA","NA","NA","NA","NA","163358","NA","NA","NA","162358","NA","162328","1924","166738","NA","NA","NA","163398","1755","1913","NA","NA","164304","164327","162328","163358","163378","morph21_Oliver/Morris","19","27985","30","yes","1920","1"
"400","","64.51612903225806","64.51612903225806","924.8064516129032","924.8064516129032","black","no","xpyriment","legacy","legacy","0","207","NA","uniform","NA","NA","NA","1","undefined","1","0","30","30","30","0","30","30","30","NA","0","30","NA","NA","0","30","NA","30","0","30","NA","NA","NA","30","0","0","NA","NA","30","30","30","30","30","31","/","Tue Dec 12 13:34:13 2023","Executes Python code","yes","m21-ba-lexicalDecision.osexp","C:\Users\ekealey\Desktop","no","mono","no","18","no","white","no","yes","1080","legacy","30","30","C:/Users/ekealey/Desktop/subject-234.csv","xpyriment","Lentiform Loewenfeld","3.3.11","0","/","NA","NA","NA","NA","space","/","684","NA","NA","NA","NA","29868","684","2","legacy","1024","2","48000","-16","AB_m21","234","even","FILL_W","STEEP","1755","170181","168326","164932","31793","NA","NA","NA","NA","NA","168826","NA","NA","NA","167826","NA","167793","1924","170581","NA","NA","NA","168867","1755","1913","NA","NA","169552","169577","167793","168826","168847","morph21_Oliver/Morris","20","28669","31","yes","1920","16"
"300","","65.625","65.625","926.78125","926.78125","black","no","xpyriment","legacy","legacy","0","204","NA","uniform","NA","NA","NA","1","undefined","1","0","31","31","31","0","31","31","31","NA","0","31","NA","NA","0","31","NA","31","0","31","NA","NA","NA","31","0","0","NA","NA","31","31","31","31","31","32","z","Tue Dec 12 13:34:13 2023","Executes Python code","yes","m21-ba-lexicalDecision.osexp","C:\Users\ekealey\Desktop","no","mono","no","18","no","white","no","yes","1080","legacy","31","31","C:/Users/ekealey/Desktop/subject-234.csv","xpyriment","Lentiform Loewenfeld","3.3.11","0","z","NA","NA","NA","NA","space","z","988","NA","NA","NA","NA","29868","988","2","legacy","1024","2","48000","-16","AB_m21","234","even","NW_L_COMP","KINGILM","1755","174308","172149","164932","31793","NA","NA","NA","NA","NA","172650","NA","NA","NA","171649","NA","171621","1924","174608","NA","NA","NA","172691","1755","1913","NA","NA","173679","173704","171621","172650","172671","morph21_Oliver/Morris","21","29657","32","yes","1920","19"
"400","","66.66666666666667","66.66666666666667","928.3939393939394","928.3939393939394","black","no","xpyriment","legacy","legacy","0","206","NA","uniform","NA","NA","NA","1","undefined","1","0","32","32","32","0","32","32","32","NA","0","32","NA","NA","0","32","NA","32","0","32","NA","NA","NA","32","0","0","NA","NA","32","32","32","32","32","33","z","Tue Dec 12 13:34:13 2023","Executes Python code","yes","m21-ba-lexicalDecision.osexp","C:\Users\ekealey\Desktop","no","mono","no","18","no","white","no","yes","1080","legacy","32","32","C:/Users/ekealey/Desktop/subject-234.csv","xpyriment","Lentiform Loewenfeld","3.3.11","0","z","NA","NA","NA","NA","space","z","980","NA","NA","NA","NA","29868","980","2","legacy","1024","2","48000","-16","AB_m21","234","even","NW_L_SIMP","CLASSOUS","1755","179860","176205","178355","31793","NA","NA","NA","NA","NA","176707","NA","NA","NA","175703","NA","175679","1924","180260","NA","NA","NA","176747","1755","1913","NA","NA","177728","177751","175679","176707","176727","morph21_Oliver/Morris","22","30637","33","yes","1920","18"
"350","","67.6470588235294","67.6470588235294","920.6176470588235","920.6176470588235","black","no","xpyriment","legacy","legacy","0","207","NA","uniform","NA","NA","NA","1","undefined","1","0","33","33","33","0","33","33","33","NA","0","33","NA","NA","0","33","NA","33","0","33","NA","NA","NA","33","0","0","NA","NA","33","33","33","33","33","34","/","Tue Dec 12 13:34:13 2023","Executes Python code","yes","m21-ba-lexicalDecision.osexp","C:\Users\ekealey\Desktop","no","mono","no","18","no","white","no","yes","1080","legacy","33","33","C:/Users/ekealey/Desktop/subject-234.csv","xpyriment","Lentiform Loewenfeld","3.3.11","0","/","NA","NA","NA","NA","space","/","664","NA","NA","NA","NA","29868","664","2","legacy","1024","2","48000","-16","AB_m21","234","even","FILL_W","WEIRD","1755","183658","181826","178355","31793","NA","NA","NA","NA","NA","182326","NA","NA","NA","181325","NA","181293","1924","184008","NA","NA","NA","182367","1755","1913","NA","NA","183032","183055","181293","182326","182347","morph21_Oliver/Morris","23","31301","34","yes","1920","2"
"400","","68.57142857142857","68.57142857142857","913.1142857142858","913.1142857142858","black","no","xpyriment","legacy","legacy","0","202","NA","uniform","NA","NA","NA","1","undefined","1","0","34","34","34","0","34","34","34","NA","0","34","NA","NA","0","34","NA","34","0","34","NA","NA","NA","34","0","0","NA","NA","34","34","34","34","34","35","/","Tue Dec 12 13:34:13 2023","Executes Python code","yes","m21-ba-lexicalDecision.osexp","C:\Users\ekealey\Desktop","no","mono","no","18","no","white","no","yes","1080","legacy","34","34","C:/Users/ekealey/Desktop/subject-234.csv","xpyriment","Lentiform Loewenfeld","3.3.11","0","/","NA","NA","NA","NA","space","/","658","NA","NA","NA","NA","29868","658","2","legacy","1024","2","48000","-16","AB_m21","234","even","CW_L","BLINDNESS","1755","187403","185573","178355","31793","NA","NA","NA","NA","NA","186076","NA","NA","NA","185071","NA","185045","1924","187803","NA","NA","NA","186117","1755","1913","NA","NA","186776","186799","185045","186076","186097","morph21_Oliver/Morris","24","31959","35","yes","1920","40"
"350","","69.44444444444444","69.44444444444444","905.6388888888889","905.6388888888889","black","no","xpyriment","legacy","legacy","0","202","NA","uniform","NA","NA","NA","1","undefined","1","0","35","35","35","0","35","35","35","NA","0","35","NA","NA","0","35","NA","35","0","35","NA","NA","NA","35","0","0","NA","NA","35","35","35","35","35","36","/","Tue Dec 12 13:34:13 2023","Executes Python code","yes","m21-ba-lexicalDecision.osexp","C:\Users\ekealey\Desktop","no","mono","no","18","no","white","no","yes","1080","legacy","35","35","C:/Users/ekealey/Desktop/subject-234.csv","xpyriment","Lentiform Loewenfeld","3.3.11","0","/","NA","NA","NA","NA","space","/","644","NA","NA","NA","NA","29868","644","2","legacy","1024","2","48000","-16","AB_m21","234","even","CW_L","GUARDING","1755","192683","189365","191180","31793","NA","NA","NA","NA","NA","189867","NA","NA","NA","188864","NA","188837","1924","193033","NA","NA","NA","189907","1755","1913","NA","NA","190551","190577","188837","189867","189887","morph21_Oliver/Morris","25","32603","36","yes","1920","26"
"400","","70.27027027027027","70.27027027027027","899.081081081081","899.081081081081","black","no","xpyriment","legacy","legacy","0","208","NA","uniform","NA","NA","NA","1","undefined","1","0","36","36","36","0","36","36","36","NA","0","36","NA","NA","0","36","NA","36","0","36","NA","NA","NA","36","0","0","NA","NA","36","36","36","36","36","37","z","Tue Dec 12 13:34:13 2023","Executes Python code","yes","m21-ba-lexicalDecision.osexp","C:\Users\ekealey\Desktop","no","mono","no","18","no","white","no","yes","1080","legacy","36","36","C:/Users/ekealey/Desktop/subject-234.csv","xpyriment","Lentiform Loewenfeld","3.3.11","0","z","NA","NA","NA","NA","space","z","663","NA","NA","NA","NA","29868","663","2","legacy","1024","2","48000","-16","AB_m21","234","even","FILL_NW","CORG","1755","196428","194596","191180","31793","NA","NA","NA","NA","NA","195096","NA","NA","NA","194095","NA","194062","1924","196828","NA","NA","NA","195137","1755","1913","NA","NA","195800","195824","194062","195096","195117","morph21_Oliver/Morris","26","33266","37","yes","1920","7"
"300","","71.05263157894737","71.05263157894737","900.7631578947369","900.7631578947369","black","no","xpyriment","legacy","legacy","0","201","NA","uniform","NA","NA","NA","1","undefined","1","0","37","37","37","0","37","37","37","NA","0","37","NA","NA","0","37","NA","37","0","37","NA","NA","NA","37","0","0","NA","NA","37","37","37","37","37","38","/","Tue Dec 12 13:34:13 2023","Executes Python code","yes","m21-ba-lexicalDecision.osexp","C:\Users\ekealey\Desktop","no","mono","no","18","no","white","no","yes","1080","legacy","37","37","C:/Users/ekealey/Desktop/subject-234.csv","xpyriment","Lentiform Loewenfeld","3.3.11","0","/","NA","NA","NA","NA","space","/","963","NA","NA","NA","NA","29868","963","2","legacy","1024","2","48000","-16","AB_m21","234","even","CW_S","DETECTABLE","1755","200523","198391","191180","31793","NA","NA","NA","NA","NA","198891","NA","NA","NA","197890","NA","197862","1924","200824","NA","NA","NA","198932","1755","1913","NA","NA","199896","199920","197862","198891","198912","morph21_Oliver/Morris","27","34229","38","yes","1920","1"
"250","","71.7948717948718","71.7948717948718","906.8717948717949","906.8717948717949","black","no","xpyriment","legacy","legacy","0","201","NA","uniform","NA","NA","NA","1","undefined","1","0","38","38","38","0","38","38","38","NA","0","38","NA","NA","0","38","NA","38","0","38","NA","NA","NA","38","0","0","NA","NA","38","38","38","38","38","39","/","Tue Dec 12 13:34:13 2023","Executes Python code","yes","m21-ba-lexicalDecision.osexp","C:\Users\ekealey\Desktop","no","mono","no","18","no","white","no","yes","1080","legacy","38","38","C:/Users/ekealey/Desktop/subject-234.csv","xpyriment","Lentiform Loewenfeld","3.3.11","0","/","NA","NA","NA","NA","space","/","1139","NA","NA","NA","NA","29868","1139","2","legacy","1024","2","48000","-16","AB_m21","234","even","CW_S","COSTLY","1755","206228","202414","204722","31793","NA","NA","NA","NA","NA","202915","NA","NA","NA","201913","NA","201886","1924","206478","NA","NA","NA","202956","1755","1913","NA","NA","204096","204119","201885","202915","202936","morph21_Oliver/Morris","28","35368","39","yes","1920","36"
"250","","72.5","72.5","909.325","909.325","black","no","xpyriment","legacy","legacy","0","206","NA","uniform","NA","NA","NA","1","undefined","1","0","39","39","39","0","39","39","39","NA","0","39","NA","NA","0","39","NA","39","0","39","NA","NA","NA","39","0","0","NA","NA","39","39","39","39","39","40","z","Tue Dec 12 13:34:13 2023","Executes Python code","yes","m21-ba-lexicalDecision.osexp","C:\Users\ekealey\Desktop","no","mono","no","18","no","white","no","yes","1080","legacy","39","39","C:/Users/ekealey/Desktop/subject-234.csv","xpyriment","Lentiform Loewenfeld","3.3.11","0","z","NA","NA","NA","NA","space","z","1005","NA","NA","NA","NA","29868","1005","2","legacy","1024","2","48000","-16","AB_m21","234","even","NW_L_SIMP","SHOOTMENT","1755","210269","208093","204722","31793","NA","NA","NA","NA","NA","208593","NA","NA","NA","207591","NA","207561","1924","210519","NA","NA","NA","208634","1755","1913","NA","NA","209640","209664","207560","208593","208614","morph21_Oliver/Morris","29","36373","40","yes","1920","16"
"300","","73.17073170731707","73.17073170731707","914.6341463414634","914.6341463414634","black","no","xpyriment","legacy","legacy","0","206","NA","uniform","NA","NA","NA","1","undefined","1","0","40","40","40","0","40","40","40","NA","0","40","NA","NA","0","40","NA","40","0","40","NA","NA","NA","40","0","0","NA","NA","40","40","40","40","40","41","z","Tue Dec 12 13:34:13 2023","Executes Python code","yes","m21-ba-lexicalDecision.osexp","C:\Users\ekealey\Desktop","no","mono","no","18","no","white","no","yes","1080","legacy","40","40","C:/Users/ekealey/Desktop/subject-234.csv","xpyriment","Lentiform Loewenfeld","3.3.11","0","z","NA","NA","NA","NA","space","z","1127","NA","NA","NA","NA","29868","1127","2","legacy","1024","2","48000","-16","AB_m21","234","even","NW_L_SIMP","BEANISH","1755","214372","212074","204722","31793","NA","NA","NA","NA","NA","212576","NA","NA","NA","211574","NA","211547","1924","214673","NA","NA","NA","212616","1755","1913","NA","NA","213744","213768","211547","212575","212596","morph21_Oliver/Morris","30","37500","41","yes","1920","8"
"200","","73.80952380952381","73.80952380952381","913.3571428571429","913.3571428571429","black","no","xpyriment","legacy","legacy","0","204","NA","uniform","NA","NA","NA","1","undefined","1","0","41","41","41","0","41","41","41","NA","0","41","NA","NA","0","41","NA","41","0","41","NA","NA","NA","41","0","0","NA","NA","41","41","41","41","41","42","z","Tue Dec 12 13:34:13 2023","Executes Python code","yes","m21-ba-lexicalDecision.osexp","C:\Users\ekealey\Desktop","no","mono","no","18","no","white","no","yes","1080","legacy","41","41","C:/Users/ekealey/Desktop/subject-234.csv","xpyriment","Lentiform Loewenfeld","3.3.11","0","z","NA","NA","NA","NA","space","z","861","NA","NA","NA","NA","29868","861","2","legacy","1024","2","48000","-16","AB_m21","234","even","NW_L_COMP","PITCHODY","1755","219773","216236","218267","31793","NA","NA","NA","NA","NA","216737","NA","NA","NA","215734","NA","215709","1924","219973","NA","NA","NA","216778","1755","1913","NA","NA","217640","217664","215709","216737","216758","morph21_Oliver/Morris","31","38361","42","yes","1920","25"
"200","","74.4186046511628","74.4186046511628","906.2325581395348","906.2325581395348","black","no","xpyriment","legacy","legacy","0","207","NA","uniform","NA","NA","NA","1","undefined","1","0","42","42","42","0","42","42","42","NA","0","42","NA","NA","0","42","NA","42","0","42","NA","NA","NA","42","0","0","NA","NA","42","42","42","42","42","43","/","Tue Dec 12 13:34:13 2023","Executes Python code","yes","m21-ba-lexicalDecision.osexp","C:\Users\ekealey\Desktop","no","mono","no","18","no","white","no","yes","1080","legacy","42","42","C:/Users/ekealey/Desktop/subject-234.csv","xpyriment","Lentiform Loewenfeld","3.3.11","0","/","NA","NA","NA","NA","space","/","607","NA","NA","NA","NA","29868","607","2","legacy","1024","2","48000","-16","AB_m21","234","even","FILL_W","SAVE","1755","223331","221556","218267","31793","NA","NA","NA","NA","NA","222056","NA","NA","NA","221056","NA","221027","1924","223532","NA","NA","NA","222097","1755","1913","NA","NA","222704","222728","221027","222056","222077","morph21_Oliver/Morris","32","38968","43","yes","1920","46"
"250","","72.72727272727273","72.72727272727273","912.9090909090909","912.9090909090909","black","no","xpyriment","legacy","legacy","0","201","NA","uniform","NA","NA","NA","0","undefined","0","0","43","43","43","0","43","43","43","NA","0","43","NA","NA","0","43","NA","43","0","43","NA","NA","NA","43","0","0","NA","NA","43","43","43","43","43","44","/","Tue Dec 12 13:34:13 2023","Executes Python code","yes","m21-ba-lexicalDecision.osexp","C:\Users\ekealey\Desktop","no","mono","no","18","no","white","no","yes","1080","legacy","43","43","C:/Users/ekealey/Desktop/subject-234.csv","xpyriment","Lentiform Loewenfeld","3.3.11","0","None","NA","NA","NA","NA","space","None","1200","NA","NA","NA","NA","29868","1200","2","legacy","1024","2","48000","-16","AB_m21","234","even","CW_S","JAILER","1755","227480","225110","218267","31793","NA","NA","NA","NA","NA","225612","NA","NA","NA","224610","NA","224584","1924","227730","NA","NA","NA","225652","1755","1913","NA","NA","226852","226876","224584","225612","225632","morph21_Oliver/Morris","32","40168","44","yes","1920","13"
"250","","73.33333333333333","73.33333333333333","906.0444444444445","906.0444444444445","black","no","xpyriment","legacy","legacy","0","207","NA","uniform","NA","NA","NA","1","undefined","1","0","44","44","44","0","44","44","44","NA","0","44","NA","NA","0","44","NA","44","0","44","NA","NA","NA","44","0","0","NA","NA","44","44","44","44","44","45","/","Tue Dec 12 13:34:13 2023","Executes Python code","yes","m21-ba-lexicalDecision.osexp","C:\Users\ekealey\Desktop","no","mono","no","18","no","white","no","yes","1080","legacy","44","44","C:/Users/ekealey/Desktop/subject-234.csv","xpyriment","Lentiform Loewenfeld","3.3.11","0","/","NA","NA","NA","NA","space","/","604","NA","NA","NA","NA","29868","604","2","legacy","1024","2","48000","-16","AB_m21","234","even","FILL_W","TREAT","1755","232581","229301","231076","31793","NA","NA","NA","NA","NA","229803","NA","NA","NA","228799","NA","228776","1924","232831","NA","NA","NA","229843","1755","1913","NA","NA","230448","230473","228776","229803","229823","morph21_Oliver/Morris","33","40772","45","yes","1920","48"
"250","","73.91304347826087","73.91304347826087","899.0869565217391","899.0869565217391","black","no","xpyriment","legacy","legacy","0","207","NA","uniform","NA","NA","NA","1","undefined","1","0","45","45","45","0","45","45","45","NA","0","45","NA","NA","0","45","NA","45","0","45","NA","NA","NA","45","0","0","NA","NA","45","45","45","45","45","46","/","Tue Dec 12 13:34:13 2023","Executes Python code","yes","m21-ba-lexicalDecision.osexp","C:\Users\ekealey\Desktop","no","mono","no","18","no","white","no","yes","1080","legacy","45","45","C:/Users/ekealey/Desktop/subject-234.csv","xpyriment","Lentiform Loewenfeld","3.3.11","0","/","NA","NA","NA","NA","space","/","586","NA","NA","NA","NA","29868","586","2","legacy","1024","2","48000","-16","AB_m21","234","even","FILL_W","SLIM","1755","236179","234423","231076","31793","NA","NA","NA","NA","NA","234924","NA","NA","NA","233923","NA","233890","1924","236430","NA","NA","NA","234964","1755","1913","NA","NA","235551","235576","233890","234924","234944","morph21_Oliver/Morris","34","41358","46","yes","1920","6"
"300","","72.34042553191489","72.34042553191489","905.4893617021277","905.4893617021277","black","no","xpyriment","legacy","legacy","0","206","NA","uniform","NA","NA","NA","0","undefined","0","0","46","46","46","0","46","46","46","NA","0","46","NA","NA","0","46","NA","46","0","46","NA","NA","NA","46","0","0","NA","NA","46","46","46","46","46","47","z","Tue Dec 12 13:34:13 2023","Executes Python code","yes","m21-ba-lexicalDecision.osexp","C:\Users\ekealey\Desktop","no","mono","no","18","no","white","no","yes","1080","legacy","46","46","C:/Users/ekealey/Desktop/subject-234.csv","xpyriment","Lentiform Loewenfeld","3.3.11","0","None","NA","NA","NA","NA","space","None","1200","NA","NA","NA","NA","29868","1200","2","legacy","1024","2","48000","-16","AB_m21","234","even","NW_L_SIMP","ELBOWISM","1755","240355","237988","231076","31793","NA","NA","NA","NA","NA","238488","NA","NA","NA","237488","NA","237460","1924","240655","NA","NA","NA","238529","1755","1913","NA","NA","239729","239752","237460","238488","238509","morph21_Oliver/Morris","34","42558","47","yes","1920","10"
"200","","72.91666666666667","72.91666666666667","902.9583333333334","902.9583333333334","black","no","xpyriment","legacy","legacy","0","203","NA","uniform","NA","NA","NA","1","undefined","1","0","47","47","47","0","47","47","47","NA","0","47","NA","NA","0","47","NA","47","0","47","NA","NA","NA","47","0","0","NA","NA","47","47","47","47","47","48","z","Tue Dec 12 13:34:13 2023","Executes Python code","yes","m21-ba-lexicalDecision.osexp","C:\Users\ekealey\Desktop","no","mono","no","18","no","white","no","yes","1080","legacy","47","47","C:/Users/ekealey/Desktop/subject-234.csv","xpyriment","Lentiform Loewenfeld","3.3.11","0","z","NA","NA","NA","NA","space","z","784","NA","NA","NA","NA","29868","784","2","legacy","1024","2","48000","-16","AB_m21","234","even","NW_S_COMP","ELMILT","1755","245683","242226","244180","31793","NA","NA","NA","NA","NA","242727","NA","NA","NA","241726","NA","241697","1924","245883","NA","NA","NA","242767","1755","1913","NA","NA","243552","243576","241697","242727","242747","morph21_Oliver/Morris","35","43342","48","yes","1920","10"
"250","","73.46938775510205","73.46938775510205","901.3469387755102","901.3469387755102","black","no","xpyriment","legacy","legacy","0","203","NA","uniform","NA","NA","NA","1","undefined","1","0","48","48","48","0","48","48","48","NA","0","48","NA","NA","0","48","NA","48","0","48","NA","NA","NA","48","0","0","NA","NA","48","48","48","48","48","49","z","Tue Dec 12 13:34:13 2023","Executes Python code","yes","m21-ba-lexicalDecision.osexp","C:\Users\ekealey\Desktop","no","mono","no","18","no","white","no","yes","1080","legacy","48","48","C:/Users/ekealey/Desktop/subject-234.csv","xpyriment","Lentiform Loewenfeld","3.3.11","0","z","NA","NA","NA","NA","space","z","824","NA","NA","NA","NA","29868","824","2","legacy","1024","2","48000","-16","AB_m21","234","even","NW_S_COMP","BRANCHEL","1755","249444","247450","244180","31793","NA","NA","NA","NA","NA","247951","NA","NA","NA","246948","NA","246917","1924","249694","NA","NA","NA","247991","1755","1913","NA","NA","248815","248840","246917","247950","247971","morph21_Oliver/Morris","36","44166","49","yes","1920","16"
"400","","74","74","906.48","906.48","black","no","xpyriment","legacy","legacy","0","204","NA","uniform","NA","NA","NA","1","undefined","1","0","49","49","49","0","49","49","49","NA","0","49","NA","NA","0","49","NA","49","0","49","NA","NA","NA","49","0","0","NA","NA","49","49","49","49","49","50","z","Tue Dec 12 13:34:13 2023","Executes Python code","yes","m21-ba-lexicalDecision.osexp","C:\Users\ekealey\Desktop","no","mono","no","18","no","white","no","yes","1080","legacy","49","49","C:/Users/ekealey/Desktop/subject-234.csv","xpyriment","Lentiform Loewenfeld","3.3.11","0","z","NA","NA","NA","NA","space","z","1158","NA","NA","NA","NA","29868","1158","2","legacy","1024","2","48000","-16","AB_m21","234","even","NW_L_COMP","ANGELITH","1755","253618","251292","244180","31793","NA","NA","NA","NA","NA","251793","NA","NA","NA","250792","NA","250763","1924","254018","NA","NA","NA","251833","1755","1913","NA","NA","252991","253015","250763","251793","251813","morph21_Oliver/Morris","37","45324","50","yes","1920","7"
"350","","74.50980392156863","74.50980392156863","901.9215686274509","901.9215686274509","black","no","xpyriment","legacy","legacy","0","201","NA","uniform","NA","NA","NA","1","undefined","1","0","50","50","50","0","50","50","50","NA","0","50","NA","NA","0","50","NA","50","0","50","NA","NA","NA","50","0","0","NA","NA","50","50","50","50","50","51","/","Tue Dec 12 13:34:13 2023","Executes Python code","yes","m21-ba-lexicalDecision.osexp","C:\Users\ekealey\Desktop","no","mono","no","18","no","white","no","yes","1080","legacy","50","50","C:/Users/ekealey/Desktop/subject-234.csv","xpyriment","Lentiform Loewenfeld","3.3.11","0","/","NA","NA","NA","NA","space","/","674","NA","NA","NA","NA","29868","674","2","legacy","1024","2","48000","-16","AB_m21","234","even","CW_S","BEARDED","1755","258907","255559","257403","31793","NA","NA","NA","NA","NA","256060","NA","NA","NA","255058","NA","255029","1924","259258","NA","NA","NA","256100","1755","1913","NA","NA","256775","256799","255029","256060","256080","morph21_Oliver/Morris","38","45998","51","yes","1920","8"
"350","","75","75","898.5192307692307","898.5192307692307","black","no","xpyriment","legacy","legacy","0","201","NA","uniform","NA","NA","NA","1","undefined","1","0","51","51","51","0","51","51","51","NA","0","51","NA","NA","0","51","NA","51","0","51","NA","NA","NA","51","0","0","NA","NA","51","51","51","51","51","52","/","Tue Dec 12 13:34:13 2023","Executes Python code","yes","m21-ba-lexicalDecision.osexp","C:\Users\ekealey\Desktop","no","mono","no","18","no","white","no","yes","1080","legacy","51","51","C:/Users/ekealey/Desktop/subject-234.csv","xpyriment","Lentiform Loewenfeld","3.3.11","0","/","NA","NA","NA","NA","space","/","725","NA","NA","NA","NA","29868","725","2","legacy","1024","2","48000","-16","AB_m21","234","even","CW_S","DULLNESS","1755","262709","260814","257403","31793","NA","NA","NA","NA","NA","261314","NA","NA","NA","260314","NA","260283","1924","263059","NA","NA","NA","261354","1755","1913","NA","NA","262079","262105","260283","261314","261334","morph21_Oliver/Morris","39","46723","52","yes","1920","43"
"200","","75.47169811320755","75.47169811320755","895.2830188679245","895.2830188679245","black","no","xpyriment","legacy","legacy","0","203","NA","uniform","NA","NA","NA","1","undefined","1","0","52","52","52","0","52","52","52","NA","0","52","NA","NA","0","52","NA","52","0","52","NA","NA","NA","52","0","0","NA","NA","52","52","52","52","52","53","z","Tue Dec 12 13:34:13 2023","Executes Python code","yes","m21-ba-lexicalDecision.osexp","C:\Users\ekealey\Desktop","no","mono","no","18","no","white","no","yes","1080","legacy","52","52","C:/Users/ekealey/Desktop/subject-234.csv","xpyriment","Lentiform Loewenfeld","3.3.11","0","z","NA","NA","NA","NA","space","z","727","NA","NA","NA","NA","29868","727","2","legacy","1024","2","48000","-16","AB_m21","234","even","NW_S_COMP","ANTILM","1755","266515","264619","257403","31793","NA","NA","NA","NA","NA","265120","NA","NA","NA","264119","NA","264090","1924","266716","NA","NA","NA","265160","1755","1913","NA","NA","265887","265911","264090","265119","265140","morph21_Oliver/Morris","40","47450","53","yes","1920","8"
"250","","75.92592592592592","75.92592592592592","888.8333333333334","888.8333333333334","black","no","xpyriment","legacy","legacy","0","202","NA","uniform","NA","NA","NA","1","undefined","1","0","53","53","53","0","53","53","53","NA","0","53","NA","NA","0","53","NA","53","0","53","NA","NA","NA","53","0","0","NA","NA","53","53","53","53","53","54","/","Tue Dec 12 13:34:13 2023","Executes Python code","yes","m21-ba-lexicalDecision.osexp","C:\Users\ekealey\Desktop","no","mono","no","18","no","white","no","yes","1080","legacy","53","53","C:/Users/ekealey/Desktop/subject-234.csv","xpyriment","Lentiform Loewenfeld","3.3.11","0","/","NA","NA","NA","NA","space","/","547","NA","NA","NA","NA","29868","547","2","legacy","1024","2","48000","-16","AB_m21","234","even","CW_L","STRIKER","1755","271491","268271","269988","31793","NA","NA","NA","NA","NA","268772","NA","NA","NA","267770","NA","267743","1924","271741","NA","NA","NA","268812","1755","1913","NA","NA","269360","269384","267743","268772","268792","morph21_Oliver/Morris","41","47997","54","yes","1920","17"
"200","","76.36363636363636","76.36363636363636","881.7454545454545","881.7454545454545","black","no","xpyriment","legacy","legacy","0","207","NA","uniform","NA","NA","NA","1","undefined","1","0","54","54","54","0","54","54","54","NA","0","54","NA","NA","0","54","NA","54","0","54","NA","NA","NA","54","0","0","NA","NA","54","54","54","54","54","55","/","Tue Dec 12 13:34:13 2023","Executes Python code","yes","m21-ba-lexicalDecision.osexp","C:\Users\ekealey\Desktop","no","mono","no","18","no","white","no","yes","1080","legacy","54","54","C:/Users/ekealey/Desktop/subject-234.csv","xpyriment","Lentiform Loewenfeld","3.3.11","0","/","NA","NA","NA","NA","space","/","499","NA","NA","NA","NA","29868","499","2","legacy","1024","2","48000","-16","AB_m21","234","even","FILL_W","WRECK","1755","275019","273351","269988","31793","NA","NA","NA","NA","NA","273852","NA","NA","NA","272850","NA","272822","1924","275219","NA","NA","NA","273892","1755","1913","NA","NA","274392","274416","272822","273852","273872","morph21_Oliver/Morris","42","48496","55","yes","1920","13"
"400","","76.78571428571429","76.78571428571429","877.9464285714286","877.9464285714286","black","no","xpyriment","legacy","legacy","0","202","NA","uniform","NA","NA","NA","1","undefined","1","0","55","55","55","0","55","55","55","NA","0","55","NA","NA","0","55","NA","55","0","55","NA","NA","NA","55","0","0","NA","NA","55","55","55","55","55","56","/","Tue Dec 12 13:34:13 2023","Executes Python code","yes","m21-ba-lexicalDecision.osexp","C:\Users\ekealey\Desktop","no","mono","no","18","no","white","no","yes","1080","legacy","55","55","C:/Users/ekealey/Desktop/subject-234.csv","xpyriment","Lentiform Loewenfeld","3.3.11","0","/","NA","NA","NA","NA","space","/","669","NA","NA","NA","NA","29868","669","2","legacy","1024","2","48000","-16","AB_m21","234","even","CW_L","STYLISH","1755","278612","276770","269988","31793","NA","NA","NA","NA","NA","277273","NA","NA","NA","276269","NA","276243","1924","279012","NA","NA","NA","277313","1755","1913","NA","NA","277983","278008","276243","277273","277293","morph21_Oliver/Morris","43","49165","56","yes","1920","29"
"250","","77.19298245614036","77.19298245614036","880.4736842105264","880.4736842105264","black","no","xpyriment","legacy","legacy","0","208","NA","uniform","NA","NA","NA","1","undefined","1","0","56","56","56","0","56","56","56","NA","0","56","NA","NA","0","56","NA","56","0","56","NA","NA","NA","56","0","0","NA","NA","56","56","56","56","56","57","z","Tue Dec 12 13:34:13 2023","Executes Python code","yes","m21-ba-lexicalDecision.osexp","C:\Users\ekealey\Desktop","no","mono","no","18","no","white","no","yes","1080","legacy","56","56","C:/Users/ekealey/Desktop/subject-234.csv","xpyriment","Lentiform Loewenfeld","3.3.11","0","z","NA","NA","NA","NA","space","z","1022","NA","NA","NA","NA","29868","1022","2","legacy","1024","2","48000","-16","AB_m21","234","even","FILL_NW","PIFTH","1755","284259","280562","282753","31793","NA","NA","NA","NA","NA","281063","NA","NA","NA","280062","NA","280031","1924","284509","NA","NA","NA","281104","1755","1913","NA","NA","282127","282150","280031","281063","281084","morph21_Oliver/Morris","44","50187","57","yes","1920","36"
"250","","77.58620689655173","77.58620689655173","876.2931034482758","876.2931034482758","black","no","xpyriment","legacy","legacy","0","207","NA","uniform","NA","NA","NA","1","undefined","1","0","57","57","57","0","57","57","57","NA","0","57","NA","NA","0","57","NA","57","0","57","NA","NA","NA","57","0","0","NA","NA","57","57","57","57","57","58","/","Tue Dec 12 13:34:13 2023","Executes Python code","yes","m21-ba-lexicalDecision.osexp","C:\Users\ekealey\Desktop","no","mono","no","18","no","white","no","yes","1080","legacy","57","57","C:/Users/ekealey/Desktop/subject-234.csv","xpyriment","Lentiform Loewenfeld","3.3.11","0","/","NA","NA","NA","NA","space","/","638","NA","NA","NA","NA","29868","638","2","legacy","1024","2","48000","-16","AB_m21","234","even","FILL_W","STARVE","1755","287986","286180","282753","31793","NA","NA","NA","NA","NA","286681","NA","NA","NA","285679","NA","285652","1924","288236","NA","NA","NA","286721","1755","1913","NA","NA","287360","287383","285652","286681","286701","morph21_Oliver/Morris","45","50825","58","yes","1920","15"
"250","","77.96610169491525","77.96610169491525","871.7627118644068","871.7627118644068","black","no","xpyriment","legacy","legacy","0","201","NA","uniform","NA","NA","NA","1","undefined","1","0","58","58","58","0","58","58","58","NA","0","58","NA","NA","0","58","NA","58","0","58","NA","NA","NA","58","0","0","NA","NA","58","58","58","58","58","59","/","Tue Dec 12 13:34:13 2023","Executes Python code","yes","m21-ba-lexicalDecision.osexp","C:\Users\ekealey\Desktop","no","mono","no","18","no","white","no","yes","1080","legacy","58","58","C:/Users/ekealey/Desktop/subject-234.csv","xpyriment","Lentiform Loewenfeld","3.3.11","0","/","NA","NA","NA","NA","space","/","609","NA","NA","NA","NA","29868","609","2","legacy","1024","2","48000","-16","AB_m21","234","even","CW_S","PEAKING","1755","291572","289792","282753","31793","NA","NA","NA","NA","NA","290293","NA","NA","NA","289291","NA","289264","1924","291822","NA","NA","NA","290333","1755","1913","NA","NA","290943","290967","289264","290293","290313","morph21_Oliver/Morris","46","51434","59","yes","1920","28"
"350","","78.33333333333333","78.33333333333333","871.25","871.25","black","no","xpyriment","legacy","legacy","0","208","NA","uniform","NA","NA","NA","1","undefined","1","0","59","59","59","0","59","59","59","NA","0","59","NA","NA","0","59","NA","59","0","59","NA","NA","NA","59","0","0","NA","NA","59","59","59","59","59","60","z","Tue Dec 12 13:34:13 2023","Executes Python code","yes","m21-ba-lexicalDecision.osexp","C:\Users\ekealey\Desktop","no","mono","no","18","no","white","no","yes","1080","legacy","59","59","C:/Users/ekealey/Desktop/subject-234.csv","xpyriment","Lentiform Loewenfeld","3.3.11","0","z","NA","NA","NA","NA","space","z","841","NA","NA","NA","NA","29868","841","2","legacy","1024","2","48000","-16","AB_m21","234","even","FILL_NW","BLANTH","1755","296941","293426","295435","31793","NA","NA","NA","NA","NA","293926","NA","NA","NA","292926","NA","292896","1924","297291","NA","NA","NA","293966","1755","1913","NA","NA","294808","294831","292896","293926","293946","morph21_Oliver/Morris","47","52275","60","yes","1920","3"
"400","","77.04918032786885","77.04918032786885","876.639344262295","876.639344262295","black","no","xpyriment","legacy","legacy","0","204","NA","uniform","NA","NA","NA","0","undefined","0","0","60","60","60","0","60","60","60","NA","0","60","NA","NA","0","60","NA","60","0","60","NA","NA","NA","60","0","0","NA","NA","60","60","60","60","60","61","z","Tue Dec 12 13:34:13 2023","Executes Python code","yes","m21-ba-lexicalDecision.osexp","C:\Users\ekealey\Desktop","no","mono","no","18","no","white","no","yes","1080","legacy","60","60","C:/Users/ekealey/Desktop/subject-234.csv","xpyriment","Lentiform Loewenfeld","3.3.11","0","None","NA","NA","NA","NA","space","None","1200","NA","NA","NA","NA","29868","1200","2","legacy","1024","2","48000","-16","AB_m21","234","even","NW_L_COMP","RIPENGE","1755","301296","298929","295435","31793","NA","NA","NA","NA","NA","299429","NA","NA","NA","298428","NA","298399","1924","301696","NA","NA","NA","299469","1755","1913","NA","NA","300669","300692","298399","299429","299449","morph21_Oliver/Morris","47","53475","61","yes","1920","4"
"350","","75.80645161290323","75.80645161290323","878.4193548387096","878.4193548387096","black","no","xpyriment","legacy","legacy","0","206","NA","uniform","NA","NA","NA","0","undefined","0","0","61","61","61","0","61","61","61","NA","0","61","NA","NA","0","61","NA","61","0","61","NA","NA","NA","61","0","0","NA","NA","61","61","61","61","61","62","z","Tue Dec 12 13:34:13 2023","Executes Python code","yes","m21-ba-lexicalDecision.osexp","C:\Users\ekealey\Desktop","no","mono","no","18","no","white","no","yes","1080","legacy","61","61","C:/Users/ekealey/Desktop/subject-234.csv","xpyriment","Lentiform Loewenfeld","3.3.11","0","/","NA","NA","NA","NA","space","/","987","NA","NA","NA","NA","29868","987","2","legacy","1024","2","48000","-16","AB_m21","234","even","NW_L_SIMP","PICKENCE","1755","305500","303343","295435","31793","NA","NA","NA","NA","NA","303844","NA","NA","NA","302842","NA","302816","1924","305850","NA","NA","NA","303884","1755","1913","NA","NA","304871","304895","302816","303844","303864","morph21_Oliver/Morris","47","54462","62","yes","1920","5"
"250","","76.19047619047619","76.19047619047619","873.5555555555555","873.5555555555555","black","no","xpyriment","legacy","legacy","0","207","NA","uniform","NA","NA","NA","1","undefined","1","0","62","62","62","0","62","62","62","NA","0","62","NA","NA","0","62","NA","62","0","62","NA","NA","NA","62","0","0","NA","NA","62","62","62","62","62","63","/","Tue Dec 12 13:34:13 2023","Executes Python code","yes","m21-ba-lexicalDecision.osexp","C:\Users\ekealey\Desktop","no","mono","no","18","no","white","no","yes","1080","legacy","62","62","C:/Users/ekealey/Desktop/subject-234.csv","xpyriment","Lentiform Loewenfeld","3.3.11","0","/","NA","NA","NA","NA","space","/","572","NA","NA","NA","NA","29868","572","2","legacy","1024","2","48000","-16","AB_m21","234","even","FILL_W","COOK","1755","310724","307478","309221","31793","NA","NA","NA","NA","NA","307979","NA","NA","NA","306976","NA","306951","1924","310974","NA","NA","NA","308019","1755","1913","NA","NA","308591","308617","306951","307979","307999","morph21_Oliver/Morris","48","55034","63","yes","1920","38"
"400","","75","75","878.65625","878.65625","black","no","xpyriment","legacy","legacy","0","203","NA","uniform","NA","NA","NA","0","undefined","0","0","63","63","63","0","63","63","63","NA","0","63","NA","NA","0","63","NA","63","0","63","NA","NA","NA","63","0","0","NA","NA","63","63","63","63","63","64","z","Tue Dec 12 13:34:13 2023","Executes Python code","yes","m21-ba-lexicalDecision.osexp","C:\Users\ekealey\Desktop","no","mono","no","18","no","white","no","yes","1080","legacy","63","63","C:/Users/ekealey/Desktop/subject-234.csv","xpyriment","Lentiform Loewenfeld","3.3.11","0","None","NA","NA","NA","NA","space","None","1200","NA","NA","NA","NA","29868","1200","2","legacy","1024","2","48000","-16","AB_m21","234","even","NW_S_COMP","TRUENELS","1755","314943","312574","309221","31793","NA","NA","NA","NA","NA","313075","NA","NA","NA","312074","NA","312046","1924","315343","NA","NA","NA","313115","1755","1913","NA","NA","314315","314340","312046","313075","313095","morph21_Oliver/Morris","48","56234","64","yes","1920","15"
"250","","75.38461538461539","75.38461538461539","876.9846153846154","876.9846153846154","black","no","xpyriment","legacy","legacy","0","208","NA","uniform","NA","NA","NA","1","undefined","1","0","64","64","64","0","64","64","64","NA","0","64","NA","NA","0","64","NA","64","0","64","NA","NA","NA","64","0","0","NA","NA","64","64","64","64","64","65","z","Tue Dec 12 13:34:13 2023","Executes Python code","yes","m21-ba-lexicalDecision.osexp","C:\Users\ekealey\Desktop","no","mono","no","18","no","white","no","yes","1080","legacy","64","64","C:/Users/ekealey/Desktop/subject-234.csv","xpyriment","Lentiform Loewenfeld","3.3.11","0","z","NA","NA","NA","NA","space","z","770","NA","NA","NA","NA","29868","770","2","legacy","1024","2","48000","-16","AB_m21","234","even","FILL_NW","PLAODS","1755","318837","316896","309221","31793","NA","NA","NA","NA","NA","317396","NA","NA","NA","316395","NA","316363","1924","319087","NA","NA","NA","317437","1755","1913","NA","NA","318208","318232","316363","317396","317417","morph21_Oliver/Morris","49","57004","65","yes","1920","37"
"400","","75.75757575757575","75.75757575757575","873.5","873.5","black","no","xpyriment","legacy","legacy","0","202","NA","uniform","NA","NA","NA","1","undefined","1","0","65","65","65","0","65","65","65","NA","0","65","NA","NA","0","65","NA","65","0","65","NA","NA","NA","65","0","0","NA","NA","65","65","65","65","65","66","/","Tue Dec 12 13:34:13 2023","Executes Python code","yes","m21-ba-lexicalDecision.osexp","C:\Users\ekealey\Desktop","no","mono","no","18","no","white","no","yes","1080","legacy","65","65","C:/Users/ekealey/Desktop/subject-234.csv","xpyriment","Lentiform Loewenfeld","3.3.11","0","/","NA","NA","NA","NA","space","/","647","NA","NA","NA","NA","29868","647","2","legacy","1024","2","48000","-16","AB_m21","234","even","CW_L","FAITHFUL","1755","323981","320659","322478","31793","NA","NA","NA","NA","NA","321159","NA","NA","NA","320159","NA","320132","1924","324381","NA","NA","NA","321200","1755","1913","NA","NA","321848","321872","320132","321159","321180","morph21_Oliver/Morris","50","57651","66","yes","1920","20"
"300","","76.11940298507463","76.11940298507463","870.5074626865671","870.5074626865671","black","no","xpyriment","legacy","legacy","0","204","NA","uniform","NA","NA","NA","1","undefined","1","0","66","66","66","0","66","66","66","NA","0","66","NA","NA","0","66","NA","66","0","66","NA","NA","NA","66","0","0","NA","NA","66","66","66","66","66","67","z","Tue Dec 12 13:34:13 2023","Executes Python code","yes","m21-ba-lexicalDecision.osexp","C:\Users\ekealey\Desktop","no","mono","no","18","no","white","no","yes","1080","legacy","66","66","C:/Users/ekealey/Desktop/subject-234.csv","xpyriment","Lentiform Loewenfeld","3.3.11","0","z","NA","NA","NA","NA","space","z","673","NA","NA","NA","NA","29868","673","2","legacy","1024","2","48000","-16","AB_m21","234","even","NW_L_COMP","EMPLOYNELS","1755","327780","325935","322478","31793","NA","NA","NA","NA","NA","326437","NA","NA","NA","325433","NA","325401","1924","328080","NA","NA","NA","326477","1755","1913","NA","NA","327151","327176","325400","326437","326457","morph21_Oliver/Morris","51","58324","67","yes","1920","21"
"250","","75","75","875.3529411764706","875.3529411764706","black","no","xpyriment","legacy","legacy","0","202","NA","uniform","NA","NA","NA","0","undefined","0","0","67","67","67","0","67","67","67","NA","0","67","NA","NA","0","67","NA","67","0","67","NA","NA","NA","67","0","0","NA","NA","67","67","67","67","67","68","/","Tue Dec 12 13:34:13 2023","Executes Python code","yes","m21-ba-lexicalDecision.osexp","C:\Users\ekealey\Desktop","no","mono","no","18","no","white","no","yes","1080","legacy","67","67","C:/Users/ekealey/Desktop/subject-234.csv","xpyriment","Lentiform Loewenfeld","3.3.11","0","None","NA","NA","NA","NA","space","None","1200","NA","NA","NA","NA","29868","1200","2","legacy","1024","2","48000","-16","AB_m21","234","even","CW_L","DEAFNESS","1755","331996","329626","322478","31793","NA","NA","NA","NA","NA","330127","NA","NA","NA","329126","NA","329096","1924","332246","NA","NA","NA","330168","1755","1913","NA","NA","331368","331392","329096","330127","330148","morph21_Oliver/Morris","51","59524","68","yes","1920","39"
"350","","73.91304347826087","73.91304347826087","879.6666666666666","879.6666666666666","black","no","xpyriment","legacy","legacy","0","206","NA","uniform","NA","NA","NA","0","undefined","0","0","68","68","68","0","68","68","68","NA","0","68","NA","NA","0","68","NA","68","0","68","NA","NA","NA","68","0","0","NA","NA","68","68","68","68","68","69","z","Tue Dec 12 13:34:13 2023","Executes Python code","yes","m21-ba-lexicalDecision.osexp","C:\Users\ekealey\Desktop","no","mono","no","18","no","white","no","yes","1080","legacy","68","68","C:/Users/ekealey/Desktop/subject-234.csv","xpyriment","Lentiform Loewenfeld","3.3.11","0","/","NA","NA","NA","NA","space","/","1173","NA","NA","NA","NA","29868","1173","2","legacy","1024","2","48000","-16","AB_m21","234","even","NW_L_SIMP","WIGISH","1755","337678","333828","336174","31793","NA","NA","NA","NA","NA","334329","NA","NA","NA","333328","NA","333302","1924","338028","NA","NA","NA","334370","1755","1913","NA","NA","335543","335569","333302","334329","334350","morph21_Oliver/Morris","51","60697","69","yes","1920","9"
"400","","74.28571428571429","74.28571428571429","877.0428571428571","877.0428571428571","black","no","xpyriment","legacy","legacy","0","202","NA","uniform","NA","NA","NA","1","undefined","1","0","69","69","69","0","69","69","69","NA","0","69","NA","NA","0","69","NA","69","0","69","NA","NA","NA","69","0","0","NA","NA","69","69","69","69","69","70","/","Tue Dec 12 13:34:13 2023","Executes Python code","yes","m21-ba-lexicalDecision.osexp","C:\Users\ekealey\Desktop","no","mono","no","18","no","white","no","yes","1080","legacy","69","69","C:/Users/ekealey/Desktop/subject-234.csv","xpyriment","Lentiform Loewenfeld","3.3.11","0","/","NA","NA","NA","NA","space","/","696","NA","NA","NA","NA","29868","696","2","legacy","1024","2","48000","-16","AB_m21","234","even","CW_L","LOCKER","1755","341466","339600","336174","31793","NA","NA","NA","NA","NA","340102","NA","NA","NA","339099","NA","339070","1924","341866","NA","NA","NA","340142","1755","1913","NA","NA","340839","340863","339070","340102","340122","morph21_Oliver/Morris","52","61393","70","yes","1920","8"
"350","","74.64788732394366","74.64788732394366","871.7746478873239","871.7746478873239","black","no","xpyriment","legacy","legacy","0","207","NA","uniform","NA","NA","NA","1","undefined","1","0","70","70","70","0","70","70","70","NA","0","70","NA","NA","0","70","NA","70","0","70","NA","NA","NA","70","0","0","NA","NA","70","70","70","70","70","71","/","Tue Dec 12 13:34:13 2023","Executes Python code","yes","m21-ba-lexicalDecision.osexp","C:\Users\ekealey\Desktop","no","mono","no","18","no","white","no","yes","1080","legacy","70","70","C:/Users/ekealey/Desktop/subject-234.csv","xpyriment","Lentiform Loewenfeld","3.3.11","0","/","NA","NA","NA","NA","space","/","503","NA","NA","NA","NA","29868","503","2","legacy","1024","2","48000","-16","AB_m21","234","even","FILL_W","FOLLOW","1755","345083","343411","336174","31793","NA","NA","NA","NA","NA","343911","NA","NA","NA","342911","NA","342885","1924","345433","NA","NA","NA","343952","1755","1913","NA","NA","344455","344480","342885","343911","343932","morph21_Oliver/Morris","53","61896","71","yes","1920","17"
"400","","75","75","868.6944444444445","868.6944444444445","black","no","xpyriment","legacy","legacy","0","201","NA","uniform","NA","NA","NA","1","undefined","1","0","71","71","71","0","71","71","71","NA","0","71","NA","NA","0","71","NA","71","0","71","NA","NA","NA","71","0","0","NA","NA","71","71","71","71","71","72","/","Tue Dec 12 13:34:13 2023","Executes Python code","yes","m21-ba-lexicalDecision.osexp","C:\Users\ekealey\Desktop","no","mono","no","18","no","white","no","yes","1080","legacy","71","71","C:/Users/ekealey/Desktop/subject-234.csv","xpyriment","Lentiform Loewenfeld","3.3.11","0","/","NA","NA","NA","NA","space","/","650","NA","NA","NA","NA","29868","650","2","legacy","1024","2","48000","-16","AB_m21","234","even","CW_S","DIETARY","1755","350297","346976","348795","31793","NA","NA","NA","NA","NA","347476","NA","NA","NA","346475","NA","346449","1924","350698","NA","NA","NA","347517","1755","1913","NA","NA","348168","348192","346449","347476","347497","morph21_Oliver/Morris","54","62546","72","yes","1920","6"
"250","","75.34246575342466","75.34246575342466","867.4794520547945","867.4794520547945","black","no","xpyriment","legacy","legacy","0","208","NA","uniform","NA","NA","NA","1","undefined","1","0","72","72","72","0","72","72","72","NA","0","72","NA","NA","0","72","NA","72","0","72","NA","NA","NA","72","0","0","NA","NA","72","72","72","72","72","73","z","Tue Dec 12 13:34:13 2023","Executes Python code","yes","m21-ba-lexicalDecision.osexp","C:\Users\ekealey\Desktop","no","mono","no","18","no","white","no","yes","1080","legacy","72","72","C:/Users/ekealey/Desktop/subject-234.csv","xpyriment","Lentiform Loewenfeld","3.3.11","0","z","NA","NA","NA","NA","space","z","780","NA","NA","NA","NA","29868","780","2","legacy","1024","2","48000","-16","AB_m21","234","even","FILL_NW","BUWL","1755","354218","352269","348795","31793","NA","NA","NA","NA","NA","352770","NA","NA","NA","351768","NA","351740","1924","354469","NA","NA","NA","352811","1755","1913","NA","NA","353592","353615","351740","352770","352791","morph21_Oliver/Morris","55","63326","73","yes","1920","9"
"300","","74.32432432432432","74.32432432432432","871.972972972973","871.972972972973","black","no","xpyriment","legacy","legacy","0","204","NA","uniform","NA","NA","NA","0","undefined","0","0","73","73","73","0","73","73","73","NA","0","73","NA","NA","0","73","NA","73","0","73","NA","NA","NA","73","0","0","NA","NA","73","73","73","73","73","74","z","Tue Dec 12 13:34:13 2023","Executes Python code","yes","m21-ba-lexicalDecision.osexp","C:\Users\ekealey\Desktop","no","mono","no","18","no","white","no","yes","1080","legacy","73","73","C:/Users/ekealey/Desktop/subject-234.csv","xpyriment","Lentiform Loewenfeld","3.3.11","0","None","NA","NA","NA","NA","space","None","1200","NA","NA","NA","NA","29868","1200","2","legacy","1024","2","48000","-16","AB_m21","234","even","NW_L_COMP","ILLILT","1755","358396","356026","348795","31793","NA","NA","NA","NA","NA","356528","NA","NA","NA","355525","NA","355497","1924","358696","NA","NA","NA","356568","1755","1913","NA","NA","357768","357793","355497","356528","356548","morph21_Oliver/Morris","55","64526","74","yes","1920","9"
"350","","74.66666666666667","74.66666666666667","867.64","867.64","black","no","xpyriment","legacy","legacy","0","201","NA","uniform","NA","NA","NA","undefined","undefined","1","0","74","74","74","0","74","74","74","NA","0","74","NA","NA","0","74","NA","74","0","74","NA","NA","NA","74","0","0","NA","NA","74","74","74","74","74","75","/","Tue Dec 12 13:34:13 2023","Executes Python code","yes","m21-ba-lexicalDecision.osexp","C:\Users\ekealey\Desktop","no","mono","no","18","no","white","no","yes","1080","legacy","74","74","C:/Users/ekealey/Desktop/subject-234.csv","xpyriment","Lentiform Loewenfeld","3.3.11","0","space","space","NA","NA","NA","space","/","119227","119227","NA","NA","NA","29868","547","2","legacy","1024","2","48000","-16","AB_m21","234","even","CW_S","TEACHER","1755","363489","360269","361986","31793","363844","NA","NA","NA","NA","360770","NA","NA","NA","359767","NA","359734","1924","483072","NA","NA","NA","360811","1755","1913","NA","NA","361359","361382","359733","360770","360791","morph21_Oliver/Morris","56","65073","75","yes","1920","23"
"200","","73.6842105263158","73.6842105263158","869.7236842105264","869.7236842105264","black","no","xpyriment","legacy","legacy","0","203","NA","uniform","NA","NA","NA","0","undefined","0","0","75","75","75","0","75","75","75","NA","0","75","NA","NA","0","75","NA","75","0","75","NA","NA","NA","75","0","0","NA","NA","75","75","75","75","75","76","z","Tue Dec 12 13:34:13 2023","Executes Python code","yes","m21-ba-lexicalDecision.osexp","C:\Users\ekealey\Desktop","no","mono","no","18","no","white","no","yes","1080","legacy","75","75","C:/Users/ekealey/Desktop/subject-234.csv","xpyriment","Lentiform Loewenfeld","3.3.11","0","/","space","NA","NA","NA","space","/","1026","119227","NA","NA","NA","29868","1026","2","legacy","1024","2","48000","-16","AB_m21","234","even","NW_S_COMP","ADOPTISH","1755","486866","484670","361986","31793","363844","NA","NA","NA","NA","485171","NA","NA","NA","484168","NA","484138","1924","487066","NA","NA","NA","485212","1755","1913","NA","NA","486239","486262","484138","485171","485192","morph21_Oliver/Morris","56","66099","76","yes","1920","19"
"400","","74.02597402597402","74.02597402597402","871.7012987012987","871.7012987012987","black","no","xpyriment","legacy","legacy","0","205","NA","uniform","NA","NA","NA","1","undefined","1","0","76","76","76","0","76","76","76","NA","0","76","NA","NA","0","76","NA","76","0","76","NA","NA","NA","76","0","0","NA","NA","76","76","76","76","76","77","z","Tue Dec 12 13:34:13 2023","Executes Python code","yes","m21-ba-lexicalDecision.osexp","C:\Users\ekealey\Desktop","no","mono","no","18","no","white","no","yes","1080","legacy","76","76","C:/Users/ekealey/Desktop/subject-234.csv","xpyriment","Lentiform Loewenfeld","3.3.11","0","z","space","NA","NA","NA","space","z","1022","119227","NA","NA","NA","29868","1022","2","legacy","1024","2","48000","-16","AB_m21","234","even","NW_S_SIMP","MEDICALARY","1755","490810","488619","361986","31793","363844","NA","NA","NA","NA","489119","NA","NA","NA","488117","NA","488090","1924","491210","NA","NA","NA","489160","1755","1913","NA","NA","490183","490207","488090","489119","489140","morph21_Oliver/Morris","57","67121","77","yes","1920","18"
"350","","74.35897435897436","74.35897435897436","867.0384615384615","867.0384615384615","black","no","xpyriment","legacy","legacy","0","202","NA","uniform","NA","NA","NA","1","undefined","1","0","77","77","77","0","77","77","77","NA","0","77","NA","NA","0","77","NA","77","0","77","NA","NA","NA","77","0","0","NA","NA","77","77","77","77","77","78","/","Tue Dec 12 13:34:13 2023","Executes Python code","yes","m21-ba-lexicalDecision.osexp","C:\Users\ekealey\Desktop","no","mono","no","18","no","white","no","yes","1080","legacy","77","77","C:/Users/ekealey/Desktop/subject-234.csv","xpyriment","Lentiform Loewenfeld","3.3.11","0","/","space","NA","NA","NA","space","/","508","119227","NA","NA","NA","29868","508","2","legacy","1024","2","48000","-16","AB_m21","234","even","CW_L","KICKING","1755","495953","492770","494450","31793","363844","NA","NA","NA","NA","493272","NA","NA","NA","492269","NA","492244","1924","496303","NA","NA","NA","493314","1755","1913","NA","NA","493822","493847","492243","493272","493293","morph21_Oliver/Morris","58","67629","78","yes","1920","23"
"300","","74.68354430379746","74.68354430379746","865.5822784810126","865.5822784810126","black","no","xpyriment","legacy","legacy","0","203","NA","uniform","NA","NA","NA","1","undefined","1","0","78","78","78","0","78","78","78","NA","0","78","NA","NA","0","78","NA","78","0","78","NA","NA","NA","78","0","0","NA","NA","78","78","78","78","78","79","z","Tue Dec 12 13:34:13 2023","Executes Python code","yes","m21-ba-lexicalDecision.osexp","C:\Users\ekealey\Desktop","no","mono","no","18","no","white","no","yes","1080","legacy","78","78","C:/Users/ekealey/Desktop/subject-234.csv","xpyriment","Lentiform Loewenfeld","3.3.11","0","z","space","NA","NA","NA","space","z","752","119227","NA","NA","NA","29868","752","2","legacy","1024","2","48000","-16","AB_m21","234","even","NW_S_COMP","CURTIDY","1755","499811","497889","494450","31793","363844","NA","NA","NA","NA","498390","NA","NA","NA","497388","NA","497355","1924","500111","NA","NA","NA","498430","1755","1913","NA","NA","499183","499208","497354","498389","498410","morph21_Oliver/Morris","59","68381","79","yes","1920","11"
"200","","75","75","864","864","black","no","xpyriment","legacy","legacy","0","205","NA","uniform","NA","NA","NA","1","undefined","1","0","79","79","79","0","79","79","79","NA","0","79","NA","NA","0","79","NA","79","0","79","NA","NA","NA","79","0","0","NA","NA","79","79","79","79","79","80","z","Tue Dec 12 13:34:13 2023","Executes Python code","yes","m21-ba-lexicalDecision.osexp","C:\Users\ekealey\Desktop","no","mono","no","18","no","white","no","yes","1080","legacy","79","79","C:/Users/ekealey/Desktop/subject-234.csv","xpyriment","Lentiform Loewenfeld","3.3.11","0","z","space","NA","NA","NA","space","z","739","119227","NA","NA","NA","29868","739","2","legacy","1024","2","48000","-16","AB_m21","234","even","NW_S_SIMP","JAWLY","1755","503586","501678","494450","31793","363844","NA","NA","NA","NA","502179","NA","NA","NA","501177","NA","501151","1924","503786","NA","NA","NA","502219","1755","1913","NA","NA","502958","502982","501151","502179","502199","morph21_Oliver/Morris","60","69120","80","yes","1920","7"
"200","","74.07407407407408","74.07407407407408","861.5308641975308","861.5308641975308","black","no","xpyriment","legacy","legacy","0","208","NA","uniform","NA","NA","NA","0","undefined","0","0","80","80","80","0","80","80","80","NA","0","80","NA","NA","0","80","NA","80","0","80","NA","NA","NA","80","0","0","NA","NA","80","80","80","80","80","81","z","Tue Dec 12 13:34:13 2023","Executes Python code","yes","m21-ba-lexicalDecision.osexp","C:\Users\ekealey\Desktop","no","mono","no","18","no","white","no","yes","1080","legacy","80","80","C:/Users/ekealey/Desktop/subject-234.csv","xpyriment","Lentiform Loewenfeld","3.3.11","0","/","space","NA","NA","NA","space","/","664","119227","NA","NA","NA","29868","664","2","legacy","1024","2","48000","-16","AB_m21","234","even","FILL_NW","FALONS","1755","508753","505416","507249","31793","363844","NA","NA","NA","NA","505917","NA","NA","NA","504914","NA","504888","1924","508953","NA","NA","NA","505957","1755","1913","NA","NA","506622","506646","504888","505917","505937","morph21_Oliver/Morris","60","69784","81","yes","1920","19"
"300","","74.39024390243902","74.39024390243902","860","860","black","no","xpyriment","legacy","legacy","0","204","NA","uniform","NA","NA","NA","1","undefined","1","0","81","81","81","0","81","81","81","NA","0","81","NA","NA","0","81","NA","81","0","81","NA","NA","NA","81","0","0","NA","NA","81","81","81","81","81","82","z","Tue Dec 12 13:34:13 2023","Executes Python code","yes","m21-ba-lexicalDecision.osexp","C:\Users\ekealey\Desktop","no","mono","no","18","no","white","no","yes","1080","legacy","81","81","C:/Users/ekealey/Desktop/subject-234.csv","xpyriment","Lentiform Loewenfeld","3.3.11","0","z","space","NA","NA","NA","space","z","736","119227","NA","NA","NA","29868","736","2","legacy","1024","2","48000","-16","AB_m21","234","even","NW_L_COMP","IME","1755","512442","510536","507249","31793","363844","NA","NA","NA","NA","511038","NA","NA","NA","510033","NA","510009","1924","512742","NA","NA","NA","511078","1755","1913","NA","NA","511814","511839","510009","511038","511058","morph21_Oliver/Morris","61","70520","82","yes","1920","20"
"250","","73.49397590361446","73.49397590361446","864.0963855421687","864.0963855421687","black","no","xpyriment","legacy","legacy","0","208","NA","uniform","NA","NA","NA","0","undefined","0","0","82","82","82","0","82","82","82","NA","0","82","NA","NA","0","82","NA","82","0","82","NA","NA","NA","82","0","0","NA","NA","82","82","82","82","82","83","z","Tue Dec 12 13:34:13 2023","Executes Python code","yes","m21-ba-lexicalDecision.osexp","C:\Users\ekealey\Desktop","no","mono","no","18","no","white","no","yes","1080","legacy","82","82","C:/Users/ekealey/Desktop/subject-234.csv","xpyriment","Lentiform Loewenfeld","3.3.11","0","None","space","NA","NA","NA","space","None","1200","119227","NA","NA","NA","29868","1200","2","legacy","1024","2","48000","-16","AB_m21","234","even","FILL_NW","DOWED","1755","516658","514290","507249","31793","363844","NA","NA","NA","NA","514791","NA","NA","NA","513790","NA","513762","1924","516908","NA","NA","NA","514831","1755","1913","NA","NA","516031","516055","513762","514790","514811","morph21_Oliver/Morris","61","71720","83","yes","1920","16"
"350","","72.61904761904762","72.61904761904762","865.297619047619","865.297619047619","black","no","xpyriment","legacy","legacy","0","206","NA","uniform","NA","NA","NA","0","undefined","0","0","83","83","83","0","83","83","83","NA","0","83","NA","NA","0","83","NA","83","0","83","NA","NA","NA","83","0","0","NA","NA","83","83","83","83","83","84","z","Tue Dec 12 13:34:13 2023","Executes Python code","yes","m21-ba-lexicalDecision.osexp","C:\Users\ekealey\Desktop","no","mono","no","18","no","white","no","yes","1080","legacy","83","83","C:/Users/ekealey/Desktop/subject-234.csv","xpyriment","Lentiform Loewenfeld","3.3.11","0","/","space","NA","NA","NA","space","/","965","119227","NA","NA","NA","29868","965","2","legacy","1024","2","48000","-16","AB_m21","234","even","NW_L_SIMP","CRITICANCE","1755","522118","518476","520613","31793","363844","NA","NA","NA","NA","518976","NA","NA","NA","517975","NA","517949","1924","522468","NA","NA","NA","519017","1755","1913","NA","NA","519983","520009","517949","518976","518997","morph21_Oliver/Morris","61","72685","84","yes","1920","22"
"350","","72.94117647058823","72.94117647058823","863.2588235294118","863.2588235294118","black","no","xpyriment","legacy","legacy","0","208","NA","uniform","NA","NA","NA","1","undefined","1","0","84","84","84","0","84","84","84","NA","0","84","NA","NA","0","84","NA","84","0","84","NA","NA","NA","84","0","0","NA","NA","84","84","84","84","84","85","z","Tue Dec 12 13:34:13 2023","Executes Python code","yes","m21-ba-lexicalDecision.osexp","C:\Users\ekealey\Desktop","no","mono","no","18","no","white","no","yes","1080","legacy","84","84","C:/Users/ekealey/Desktop/subject-234.csv","xpyriment","Lentiform Loewenfeld","3.3.11","0","z","space","NA","NA","NA","space","z","692","119227","NA","NA","NA","29868","692","2","legacy","1024","2","48000","-16","AB_m21","234","even","FILL_NW","DOADS","1755","525915","524053","520613","31793","363844","NA","NA","NA","NA","524553","NA","NA","NA","523552","NA","523522","1924","526265","NA","NA","NA","524594","1755","1913","NA","NA","525287","525310","523522","524553","524574","morph21_Oliver/Morris","62","73377","85","yes","1920","15"
"400","","73.25581395348837","73.25581395348837","864.9186046511628","864.9186046511628","black","no","xpyriment","legacy","legacy","0","206","NA","uniform","NA","NA","NA","1","undefined","1","0","85","85","85","0","85","85","85","NA","0","85","NA","NA","0","85","NA","85","0","85","NA","NA","NA","85","0","0","NA","NA","85","85","85","85","85","86","z","Tue Dec 12 13:34:13 2023","Executes Python code","yes","m21-ba-lexicalDecision.osexp","C:\Users\ekealey\Desktop","no","mono","no","18","no","white","no","yes","1080","legacy","85","85","C:/Users/ekealey/Desktop/subject-234.csv","xpyriment","Lentiform Loewenfeld","3.3.11","0","z","space","NA","NA","NA","space","z","1006","119227","NA","NA","NA","29868","1006","2","legacy","1024","2","48000","-16","AB_m21","234","even","NW_L_SIMP","VALIDER","1755","530005","527827","520613","31793","363844","NA","NA","NA","NA","528327","NA","NA","NA","527327","NA","527295","1924","530405","NA","NA","NA","528368","1755","1913","NA","NA","529375","529401","527295","528327","528348","morph21_Oliver/Morris","63","74383","86","yes","1920","23"
"250","","73.5632183908046","73.5632183908046","861.8505747126437","861.8505747126437","black","no","xpyriment","legacy","legacy","0","207","NA","uniform","NA","NA","NA","1","undefined","1","0","86","86","86","0","86","86","86","NA","0","86","NA","NA","0","86","NA","86","0","86","NA","NA","NA","86","0","0","NA","NA","86","86","86","86","86","87","/","Tue Dec 12 13:34:13 2023","Executes Python code","yes","m21-ba-lexicalDecision.osexp","C:\Users\ekealey\Desktop","no","mono","no","18","no","white","no","yes","1080","legacy","86","86","C:/Users/ekealey/Desktop/subject-234.csv","xpyriment","Lentiform Loewenfeld","3.3.11","0","/","space","NA","NA","NA","space","/","598","119227","NA","NA","NA","29868","598","2","legacy","1024","2","48000","-16","AB_m21","234","even","FILL_W","SOUGHT","1755","535245","531970","533741","31793","363844","NA","NA","NA","NA","532472","NA","NA","NA","531468","NA","531438","1924","535495","NA","NA","NA","532512","1755","1913","NA","NA","533111","533136","531438","532471","532492","morph21_Oliver/Morris","64","74981","87","yes","1920","40"
"200","","73.86363636363636","73.86363636363636","860.2159090909091","860.2159090909091","black","no","xpyriment","legacy","legacy","0","203","NA","uniform","NA","NA","NA","1","undefined","1","0","87","87","87","0","87","87","87","NA","0","87","NA","NA","0","87","NA","87","0","87","NA","NA","NA","87","0","0","NA","NA","87","87","87","87","87","88","z","Tue Dec 12 13:34:13 2023","Executes Python code","yes","m21-ba-lexicalDecision.osexp","C:\Users\ekealey\Desktop","no","mono","no","18","no","white","no","yes","1080","legacy","87","87","C:/Users/ekealey/Desktop/subject-234.csv","xpyriment","Lentiform Loewenfeld","3.3.11","0","z","space","NA","NA","NA","space","z","718","119227","NA","NA","NA","29868","718","2","legacy","1024","2","48000","-16","AB_m21","234","even","NW_S_COMP","FANFIL","1755","538946","537059","533741","31793","363844","NA","NA","NA","NA","537559","NA","NA","NA","536558","NA","536525","1924","539146","NA","NA","NA","537600","1755","1913","NA","NA","538319","538343","536525","537559","537580","morph21_Oliver/Morris","65","75699","88","yes","1920","6"
"350","","74.15730337078652","74.15730337078652","856.6067415730337","856.6067415730337","black","no","xpyriment","legacy","legacy","0","201","NA","uniform","NA","NA","NA","1","undefined","1","0","88","88","88","0","88","88","88","NA","0","88","NA","NA","0","88","NA","88","0","88","NA","NA","NA","88","0","0","NA","NA","88","88","88","88","88","89","/","Tue Dec 12 13:34:13 2023","Executes Python code","yes","m21-ba-lexicalDecision.osexp","C:\Users\ekealey\Desktop","no","mono","no","18","no","white","no","yes","1080","legacy","88","88","C:/Users/ekealey/Desktop/subject-234.csv","xpyriment","Lentiform Loewenfeld","3.3.11","0","/","space","NA","NA","NA","space","/","539","119227","NA","NA","NA","29868","539","2","legacy","1024","2","48000","-16","AB_m21","234","even","CW_S","CHILLY","1755","542410","540701","533741","31793","363844","NA","NA","NA","NA","541203","NA","NA","NA","540198","NA","540171","1924","542760","NA","NA","NA","541243","1755","1913","NA","NA","541783","541807","540171","541202","541223","morph21_Oliver/Morris","66","76238","89","yes","1920","48"
"200","","74.44444444444444","74.44444444444444","853.7444444444444","853.7444444444444","black","no","xpyriment","legacy","legacy","0","202","NA","uniform","NA","NA","NA","1","undefined","1","0","89","89","89","0","89","89","89","NA","0","89","NA","NA","0","89","NA","89","0","89","NA","NA","NA","89","0","0","NA","NA","89","89","89","89","89","90","/","Tue Dec 12 13:34:13 2023","Executes Python code","yes","m21-ba-lexicalDecision.osexp","C:\Users\ekealey\Desktop","no","mono","no","18","no","white","no","yes","1080","legacy","89","89","C:/Users/ekealey/Desktop/subject-234.csv","xpyriment","Lentiform Loewenfeld","3.3.11","0","/","space","NA","NA","NA","space","/","599","119227","NA","NA","NA","29868","599","2","legacy","1024","2","48000","-16","AB_m21","234","even","CW_L","VERBAL","1755","547613","544336","546110","31793","363844","NA","NA","NA","NA","544837","NA","NA","NA","543835","NA","543810","1924","547813","NA","NA","NA","544878","1755","1913","NA","NA","545478","545504","543810","544837","544858","morph21_Oliver/Morris","67","76837","90","yes","1920","50"
"300","","73.62637362637362","73.62637362637362","856.1428571428571","856.1428571428571","black","no","xpyriment","legacy","legacy","0","205","NA","uniform","NA","NA","NA","0","undefined","0","0","90","90","90","0","90","90","90","NA","0","90","NA","NA","0","90","NA","90","0","90","NA","NA","NA","90","0","0","NA","NA","90","90","90","90","90","91","z","Tue Dec 12 13:34:13 2023","Executes Python code","yes","m21-ba-lexicalDecision.osexp","C:\Users\ekealey\Desktop","no","mono","no","18","no","white","no","yes","1080","legacy","90","90","C:/Users/ekealey/Desktop/subject-234.csv","xpyriment","Lentiform Loewenfeld","3.3.11","0","/","space","NA","NA","NA","space","/","1072","119227","NA","NA","NA","29868","1072","2","legacy","1024","2","48000","-16","AB_m21","234","even","NW_S_SIMP","YIELDIST","1755","551617","549376","546110","31793","363844","NA","NA","NA","NA","549877","NA","NA","NA","548874","NA","548841","1924","551917","NA","NA","NA","549918","1755","1913","NA","NA","550991","551014","548841","549877","549898","morph21_Oliver/Morris","67","77909","91","yes","1920","20"
"400","","73.91304347826087","73.91304347826087","853.6086956521739","853.6086956521739","black","no","xpyriment","legacy","legacy","0","201","NA","uniform","NA","NA","NA","1","undefined","1","0","91","91","91","0","91","91","91","NA","0","91","NA","NA","0","91","NA","91","0","91","NA","NA","NA","91","0","0","NA","NA","91","91","91","91","91","92","/","Tue Dec 12 13:34:13 2023","Executes Python code","yes","m21-ba-lexicalDecision.osexp","C:\Users\ekealey\Desktop","no","mono","no","18","no","white","no","yes","1080","legacy","91","91","C:/Users/ekealey/Desktop/subject-234.csv","xpyriment","Lentiform Loewenfeld","3.3.11","0","/","space","NA","NA","NA","space","/","623","119227","NA","NA","NA","29868","623","2","legacy","1024","2","48000","-16","AB_m21","234","even","CW_S","RAIDER","1755","555266","553472","546110","31793","363844","NA","NA","NA","NA","553973","NA","NA","NA","552970","NA","552945","1924","555666","NA","NA","NA","554015","1755","1913","NA","NA","554639","554662","552945","553973","553994","morph21_Oliver/Morris","68","78532","92","yes","1920","12"
