"ITI","_prepare","acc","accuracy","average_response_time","avg_rt","background","bidi","canvas_backend","clock_backend","color_backend","compensation","cond_trig","condtrigtime","coordinates","coroutines_cycles","coroutines_duration","coroutines_mean_cycle_duration","correct","correct_instructions_1","correct_new_keyboard_response_1","count_AB_m21","count_ITI","count_blank_screen","count_blink_screen","count_block1","count_break1","count_break2","count_break3_1","count_canvas","count_close_port","count_cond_trigger","count_correct_trigger","count_def_chain","count_end_screen","count_fixation_1","count_getting_started","count_inc_counter","count_instructions_1","count_logger","count_logscript","count_new_inline_script","count_new_inline_script_2","count_new_keyboard_response_1","count_open_port","count_reset_counter_prep","count_reset_counter_run","count_reset_counter_run_1","count_response_trigger_trial","count_responsescreen","count_sequence","count_target_present","count_word_trigger","counter","cresp","datetime","description","disable_garbage_collection","experiment_file","experiment_path","font_bold","font_family","font_italic","font_size","font_underline","foreground","form_clicks","fullscreen","height","keyboard_backend","live_row","live_row_block1","logfile","mouse_backend","opensesame_codename","opensesame_version","repeat_cycle","response","response_break1","response_break2","response_break3_1","response_end_screen","response_instructions_1","response_new_keyboard_response_1","response_time","response_time_break1","response_time_break2","response_time_break3_1","response_time_end_screen","response_time_instructions_1","response_time_new_keyboard_response_1","round_decimals","sampler_backend","sound_buf_size","sound_channels","sound_freq","sound_sample_size","start","subject_nr","subject_parity","targ_type","target","time_AB_m21","time_ITI","time_blank_screen","time_blink_screen","time_block1","time_break1","time_break2","time_break3_1","time_canvas","time_close_port","time_cond_trigger","time_correct_trigger","time_def_chain","time_end_screen","time_fixation_1","time_getting_started","time_inc_counter","time_instructions_1","time_logger","time_logscript","time_new_inline_script","time_new_inline_script_2","time_new_keyboard_response_1","time_open_port","time_reset_counter_prep","time_reset_counter_run","time_reset_counter_run_1","time_response_trigger_trial","time_responsescreen","time_sequence","time_target_present","time_word_trigger","title","total_correct","total_response_time","total_responses","uniform_coordinates","width","word_trig"
"200","","0","0","1200","1200","black","no","xpyriment","legacy","legacy","0","206","NA","uniform","NA","NA","NA","0","undefined","0","0","0","0","0","0","0","0","0","NA","0","0","NA","NA","0","0","NA","0","0","0","NA","NA","NA","0","0","0","NA","NA","0","0","0","0","0","1","z","Thu Feb 15 13:18:44 2024","Executes Python code","yes","m21-ba-lexicalDecision.osexp","C:\Users\ekealey\Desktop","no","mono","no","18","no","white","no","yes","1080","legacy","0","0","C:/Users/ekealey/Desktop/subject-236.csv","xpyriment","Lentiform Loewenfeld","3.3.11","0","None","NA","NA","NA","NA","return","None","1200","NA","NA","NA","NA","769327","1200","2","legacy","1024","2","48000","-16","AB_m21","236","even","NW_L_SIMP","GROWIST","2133","775962","773593","NA","771625","NA","NA","NA","NA","NA","774093","NA","NA","NA","773093","NA","773059","2297","776162","NA","NA","NA","774134","2133","2285","NA","NA","775334","775359","773059","774093","774114","morph21_Oliver/Morris","0","1200","1","yes","1920","20"
"250","","50","50","940","940","black","no","xpyriment","legacy","legacy","0","202","NA","uniform","NA","NA","NA","1","undefined","1","0","1","1","1","0","1","1","1","NA","0","1","NA","NA","0","1","NA","1","0","1","NA","NA","NA","1","0","0","NA","NA","1","1","1","1","1","2","/","Thu Feb 15 13:18:44 2024","Executes Python code","yes","m21-ba-lexicalDecision.osexp","C:\Users\ekealey\Desktop","no","mono","no","18","no","white","no","yes","1080","legacy","1","1","C:/Users/ekealey/Desktop/subject-236.csv","xpyriment","Lentiform Loewenfeld","3.3.11","0","/","NA","NA","NA","NA","return","/","680","NA","NA","NA","NA","769327","680","2","legacy","1024","2","48000","-16","AB_m21","236","even","CW_L","DREAMER","2133","779613","777763","NA","771625","NA","NA","NA","NA","NA","778263","NA","NA","NA","777262","NA","777234","2297","779863","NA","NA","NA","778304","2133","2285","NA","NA","778984","779009","777234","778263","778284","morph21_Oliver/Morris","1","1880","2","yes","1920","12"
"200","","66.66666666666667","66.66666666666667","887.6666666666666","887.6666666666666","black","no","xpyriment","legacy","legacy","0","205","NA","uniform","NA","NA","NA","1","undefined","1","0","2","2","2","0","2","2","2","NA","0","2","NA","NA","0","2","NA","2","0","2","NA","NA","NA","2","0","0","NA","NA","2","2","2","2","2","3","z","Thu Feb 15 13:18:44 2024","Executes Python code","yes","m21-ba-lexicalDecision.osexp","C:\Users\ekealey\Desktop","no","mono","no","18","no","white","no","yes","1080","legacy","2","2","C:/Users/ekealey/Desktop/subject-236.csv","xpyriment","Lentiform Loewenfeld","3.3.11","0","z","NA","NA","NA","NA","return","z","783","NA","NA","NA","NA","769327","783","2","legacy","1024","2","48000","-16","AB_m21","236","even","NW_S_SIMP","GUMFUL","2133","784884","781428","783381","771625","NA","NA","NA","NA","NA","781928","NA","NA","NA","780927","NA","780899","2297","785084","NA","NA","NA","781969","2133","2285","NA","NA","782753","782777","780899","781928","781949","morph21_Oliver/Morris","2","2663","3","yes","1920","2"
"350","","75","75","857","857","black","no","xpyriment","legacy","legacy","0","202","NA","uniform","NA","NA","NA","1","undefined","1","0","3","3","3","0","3","3","3","NA","0","3","NA","NA","0","3","NA","3","0","3","NA","NA","NA","3","0","0","NA","NA","3","3","3","3","3","4","/","Thu Feb 15 13:18:44 2024","Executes Python code","yes","m21-ba-lexicalDecision.osexp","C:\Users\ekealey\Desktop","no","mono","no","18","no","white","no","yes","1080","legacy","3","3","C:/Users/ekealey/Desktop/subject-236.csv","xpyriment","Lentiform Loewenfeld","3.3.11","0","/","NA","NA","NA","NA","return","/","765","NA","NA","NA","NA","769327","765","2","legacy","1024","2","48000","-16","AB_m21","236","even","CW_L","GUARDING","2133","788595","786663","783381","771625","NA","NA","NA","NA","NA","787163","NA","NA","NA","786163","NA","786132","2297","788945","NA","NA","NA","787203","2133","2285","NA","NA","787968","787992","786132","787163","787183","morph21_Oliver/Morris","3","3428","4","yes","1920","26"
"250","","80","80","829.2","829.2","black","no","xpyriment","legacy","legacy","0","201","NA","uniform","NA","NA","NA","1","undefined","1","0","4","4","4","0","4","4","4","NA","0","4","NA","NA","0","4","NA","4","0","4","NA","NA","NA","4","0","0","NA","NA","4","4","4","4","4","5","/","Thu Feb 15 13:18:44 2024","Executes Python code","yes","m21-ba-lexicalDecision.osexp","C:\Users\ekealey\Desktop","no","mono","no","18","no","white","no","yes","1080","legacy","4","4","C:/Users/ekealey/Desktop/subject-236.csv","xpyriment","Lentiform Loewenfeld","3.3.11","0","/","NA","NA","NA","NA","return","/","718","NA","NA","NA","NA","769327","718","2","legacy","1024","2","48000","-16","AB_m21","236","even","CW_S","AWARENESS","2133","792423","790533","783381","771625","NA","NA","NA","NA","NA","791033","NA","NA","NA","790031","NA","790004","2297","792673","NA","NA","NA","791074","2133","2285","NA","NA","791792","791820","790004","791033","791054","morph21_Oliver/Morris","4","4146","5","yes","1920","44"
"400","","83.33333333333333","83.33333333333333","780","780","black","no","xpyriment","legacy","legacy","0","202","NA","uniform","NA","NA","NA","1","undefined","1","0","5","5","5","0","5","5","5","NA","0","5","NA","NA","0","5","NA","5","0","5","NA","NA","NA","5","0","0","NA","NA","5","5","5","5","5","6","/","Thu Feb 15 13:18:44 2024","Executes Python code","yes","m21-ba-lexicalDecision.osexp","C:\Users\ekealey\Desktop","no","mono","no","18","no","white","no","yes","1080","legacy","5","5","C:/Users/ekealey/Desktop/subject-236.csv","xpyriment","Lentiform Loewenfeld","3.3.11","0","/","NA","NA","NA","NA","return","/","534","NA","NA","NA","NA","769327","534","2","legacy","1024","2","48000","-16","AB_m21","236","even","CW_L","CONDUCTOR","2133","797435","794229","795932","771625","NA","NA","NA","NA","NA","794729","NA","NA","NA","793729","NA","793700","2297","797835","NA","NA","NA","794770","2133","2285","NA","NA","795304","795328","793700","794729","794750","morph21_Oliver/Morris","5","4680","6","yes","1920","44"
"250","","85.71428571428571","85.71428571428571","748.8571428571429","748.8571428571429","black","no","xpyriment","legacy","legacy","0","202","NA","uniform","NA","NA","NA","1","undefined","1","0","6","6","6","0","6","6","6","NA","0","6","NA","NA","0","6","NA","6","0","6","NA","NA","NA","6","0","0","NA","NA","6","6","6","6","6","7","/","Thu Feb 15 13:18:44 2024","Executes Python code","yes","m21-ba-lexicalDecision.osexp","C:\Users\ekealey\Desktop","no","mono","no","18","no","white","no","yes","1080","legacy","6","6","C:/Users/ekealey/Desktop/subject-236.csv","xpyriment","Lentiform Loewenfeld","3.3.11","0","/","NA","NA","NA","NA","return","/","562","NA","NA","NA","NA","769327","562","2","legacy","1024","2","48000","-16","AB_m21","236","even","CW_L","DANCER","2133","801119","799385","795932","771625","NA","NA","NA","NA","NA","799886","NA","NA","NA","798884","NA","798852","2297","801369","NA","NA","NA","799926","2133","2285","NA","NA","800488","800516","798852","799886","799906","morph21_Oliver/Morris","6","5242","7","yes","1920","11"
"350","","87.5","87.5","726.25","726.25","black","no","xpyriment","legacy","legacy","0","201","NA","uniform","NA","NA","NA","1","undefined","1","0","7","7","7","0","7","7","7","NA","0","7","NA","NA","0","7","NA","7","0","7","NA","NA","NA","7","0","0","NA","NA","7","7","7","7","7","8","/","Thu Feb 15 13:18:44 2024","Executes Python code","yes","m21-ba-lexicalDecision.osexp","C:\Users\ekealey\Desktop","no","mono","no","18","no","white","no","yes","1080","legacy","7","7","C:/Users/ekealey/Desktop/subject-236.csv","xpyriment","Lentiform Loewenfeld","3.3.11","0","/","NA","NA","NA","NA","return","/","568","NA","NA","NA","NA","769327","568","2","legacy","1024","2","48000","-16","AB_m21","236","even","CW_S","BEARDED","2133","804652","802914","795932","771625","NA","NA","NA","NA","NA","803415","NA","NA","NA","802414","NA","802388","2297","805002","NA","NA","NA","803456","2133","2285","NA","NA","804024","804049","802388","803415","803436","morph21_Oliver/Morris","7","5810","8","yes","1920","8"
"200","","88.88888888888889","88.88888888888889","691","691","black","no","xpyriment","legacy","legacy","0","207","NA","uniform","NA","NA","NA","1","undefined","1","0","8","8","8","0","8","8","8","NA","0","8","NA","NA","0","8","NA","8","0","8","NA","NA","NA","8","0","0","NA","NA","8","8","8","8","8","9","/","Thu Feb 15 13:18:44 2024","Executes Python code","yes","m21-ba-lexicalDecision.osexp","C:\Users\ekealey\Desktop","no","mono","no","18","no","white","no","yes","1080","legacy","8","8","C:/Users/ekealey/Desktop/subject-236.csv","xpyriment","Lentiform Loewenfeld","3.3.11","0","/","NA","NA","NA","NA","return","/","409","NA","NA","NA","NA","769327","409","2","legacy","1024","2","48000","-16","AB_m21","236","even","FILL_W","SAVE","2133","809636","806552","808133","771625","NA","NA","NA","NA","NA","807053","NA","NA","NA","806050","NA","806021","2297","809836","NA","NA","NA","807094","2133","2285","NA","NA","807504","807530","806021","807053","807074","morph21_Oliver/Morris","8","6219","9","yes","1920","46"
"400","","90","90","676.7","676.7","black","no","xpyriment","legacy","legacy","0","201","NA","uniform","NA","NA","NA","1","undefined","1","0","9","9","9","0","9","9","9","NA","0","9","NA","NA","0","9","NA","9","0","9","NA","NA","NA","9","0","0","NA","NA","9","9","9","9","9","10","/","Thu Feb 15 13:18:44 2024","Executes Python code","yes","m21-ba-lexicalDecision.osexp","C:\Users\ekealey\Desktop","no","mono","no","18","no","white","no","yes","1080","legacy","9","9","C:/Users/ekealey/Desktop/subject-236.csv","xpyriment","Lentiform Loewenfeld","3.3.11","0","/","NA","NA","NA","NA","return","/","548","NA","NA","NA","NA","769327","548","2","legacy","1024","2","48000","-16","AB_m21","236","even","CW_S","RAIDER","2133","813098","811382","808133","771625","NA","NA","NA","NA","NA","811884","NA","NA","NA","810880","NA","810852","2297","813498","NA","NA","NA","811924","2133","2285","NA","NA","812472","812495","810852","811884","811904","morph21_Oliver/Morris","9","6767","10","yes","1920","12"
"350","","90.9090909090909","90.9090909090909","665.0909090909091","665.0909090909091","black","no","xpyriment","legacy","legacy","0","202","NA","uniform","NA","NA","NA","1","undefined","1","0","10","10","10","0","10","10","10","NA","0","10","NA","NA","0","10","NA","10","0","10","NA","NA","NA","10","0","0","NA","NA","10","10","10","10","10","11","/","Thu Feb 15 13:18:44 2024","Executes Python code","yes","m21-ba-lexicalDecision.osexp","C:\Users\ekealey\Desktop","no","mono","no","18","no","white","no","yes","1080","legacy","10","10","C:/Users/ekealey/Desktop/subject-236.csv","xpyriment","Lentiform Loewenfeld","3.3.11","0","/","NA","NA","NA","NA","return","/","549","NA","NA","NA","NA","769327","549","2","legacy","1024","2","48000","-16","AB_m21","236","even","CW_L","BOMBER","2133","816788","815070","808133","771625","NA","NA","NA","NA","NA","815571","NA","NA","NA","814569","NA","814541","2297","817138","NA","NA","NA","815611","2133","2285","NA","NA","816161","816184","814541","815571","815591","morph21_Oliver/Morris","10","7316","11","yes","1920","7"
"350","","91.66666666666667","91.66666666666667","663.25","663.25","black","no","xpyriment","legacy","legacy","0","208","NA","uniform","NA","NA","NA","1","undefined","1","0","11","11","11","0","11","11","11","NA","0","11","NA","NA","0","11","NA","11","0","11","NA","NA","NA","11","0","0","NA","NA","11","11","11","11","11","12","z","Thu Feb 15 13:18:44 2024","Executes Python code","yes","m21-ba-lexicalDecision.osexp","C:\Users\ekealey\Desktop","no","mono","no","18","no","white","no","yes","1080","legacy","11","11","C:/Users/ekealey/Desktop/subject-236.csv","xpyriment","Lentiform Loewenfeld","3.3.11","0","z","NA","NA","NA","NA","return","z","643","NA","NA","NA","NA","769327","643","2","legacy","1024","2","48000","-16","AB_m21","236","even","FILL_NW","HEAS","2133","821994","818680","820491","771625","NA","NA","NA","NA","NA","819181","NA","NA","NA","818177","NA","818149","2297","822344","NA","NA","NA","819221","2133","2285","NA","NA","819864","819888","818149","819181","819201","morph21_Oliver/Morris","11","7959","12","yes","1920","26"
"350","","92.3076923076923","92.3076923076923","697.5384615384615","697.5384615384615","black","no","xpyriment","legacy","legacy","0","201","NA","uniform","NA","NA","NA","1","undefined","1","0","12","12","12","0","12","12","12","NA","0","12","NA","NA","0","12","NA","12","0","12","NA","NA","NA","12","0","0","NA","NA","12","12","12","12","12","13","/","Thu Feb 15 13:18:44 2024","Executes Python code","yes","m21-ba-lexicalDecision.osexp","C:\Users\ekealey\Desktop","no","mono","no","18","no","white","no","yes","1080","legacy","12","12","C:/Users/ekealey/Desktop/subject-236.csv","xpyriment","Lentiform Loewenfeld","3.3.11","0","/","NA","NA","NA","NA","return","/","1109","NA","NA","NA","NA","769327","1109","2","legacy","1024","2","48000","-16","AB_m21","236","even","CW_S","NEATLY","2133","826236","823957","820491","771625","NA","NA","NA","NA","NA","824457","NA","NA","NA","823455","NA","823427","2297","826586","NA","NA","NA","824498","2133","2285","NA","NA","825608","825633","823427","824457","824478","morph21_Oliver/Morris","12","9068","13","yes","1920","33"
"300","","92.85714285714286","92.85714285714286","695.7857142857143","695.7857142857143","black","no","xpyriment","legacy","legacy","0","204","NA","uniform","NA","NA","NA","1","undefined","1","0","13","13","13","0","13","13","13","NA","0","13","NA","NA","0","13","NA","13","0","13","NA","NA","NA","13","0","0","NA","NA","13","13","13","13","13","14","z","Thu Feb 15 13:18:44 2024","Executes Python code","yes","m21-ba-lexicalDecision.osexp","C:\Users\ekealey\Desktop","no","mono","no","18","no","white","no","yes","1080","legacy","13","13","C:/Users/ekealey/Desktop/subject-236.csv","xpyriment","Lentiform Loewenfeld","3.3.11","0","z","NA","NA","NA","NA","return","z","673","NA","NA","NA","NA","769327","673","2","legacy","1024","2","48000","-16","AB_m21","236","even","NW_L_COMP","SHEETEL","2133","829996","828154","820491","771625","NA","NA","NA","NA","NA","828654","NA","NA","NA","827653","NA","827627","2297","830296","NA","NA","NA","828695","2133","2285","NA","NA","829368","829392","827627","828654","828675","morph21_Oliver/Morris","13","9741","14","yes","1920","5"
"250","","93.33333333333333","93.33333333333333","684.8","684.8","black","no","xpyriment","legacy","legacy","0","204","NA","uniform","NA","NA","NA","1","undefined","1","0","14","14","14","0","14","14","14","NA","0","14","NA","NA","0","14","NA","14","0","14","NA","NA","NA","14","0","0","NA","NA","14","14","14","14","14","15","z","Thu Feb 15 13:18:44 2024","Executes Python code","yes","m21-ba-lexicalDecision.osexp","C:\Users\ekealey\Desktop","no","mono","no","18","no","white","no","yes","1080","legacy","14","14","C:/Users/ekealey/Desktop/subject-236.csv","xpyriment","Lentiform Loewenfeld","3.3.11","0","z","NA","NA","NA","NA","return","z","531","NA","NA","NA","NA","769327","531","2","legacy","1024","2","48000","-16","AB_m21","236","even","NW_L_COMP","MUDLA","2133","835077","831872","833571","771625","NA","NA","NA","NA","NA","832372","NA","NA","NA","831372","NA","831347","2297","835327","NA","NA","NA","832413","2133","2285","NA","NA","832945","832968","831347","832372","832393","morph21_Oliver/Morris","14","10272","15","yes","1920","12"
"250","","87.5","87.5","680.0625","680.0625","black","no","xpyriment","legacy","legacy","0","208","NA","uniform","NA","NA","NA","0","undefined","0","0","15","15","15","0","15","15","15","NA","0","15","NA","NA","0","15","NA","15","0","15","NA","NA","NA","15","0","0","NA","NA","15","15","15","15","15","16","z","Thu Feb 15 13:18:44 2024","Executes Python code","yes","m21-ba-lexicalDecision.osexp","C:\Users\ekealey\Desktop","no","mono","no","18","no","white","no","yes","1080","legacy","15","15","C:/Users/ekealey/Desktop/subject-236.csv","xpyriment","Lentiform Loewenfeld","3.3.11","0","/","NA","NA","NA","NA","return","/","609","NA","NA","NA","NA","769327","609","2","legacy","1024","2","48000","-16","AB_m21","236","even","FILL_NW","DOWED","2133","838659","836882","833571","771625","NA","NA","NA","NA","NA","837383","NA","NA","NA","836382","NA","836353","2297","838909","NA","NA","NA","837423","2133","2285","NA","NA","838032","838056","836353","837383","837403","morph21_Oliver/Morris","14","10881","16","yes","1920","16"
"350","","88.23529411764706","88.23529411764706","668.8235294117648","668.8235294117648","black","no","xpyriment","legacy","legacy","0","202","NA","uniform","NA","NA","NA","1","undefined","1","0","16","16","16","0","16","16","16","NA","0","16","NA","NA","0","16","NA","16","0","16","NA","NA","NA","16","0","0","NA","NA","16","16","16","16","16","17","/","Thu Feb 15 13:18:44 2024","Executes Python code","yes","m21-ba-lexicalDecision.osexp","C:\Users\ekealey\Desktop","no","mono","no","18","no","white","no","yes","1080","legacy","16","16","C:/Users/ekealey/Desktop/subject-236.csv","xpyriment","Lentiform Loewenfeld","3.3.11","0","/","NA","NA","NA","NA","return","/","489","NA","NA","NA","NA","769327","489","2","legacy","1024","2","48000","-16","AB_m21","236","even","CW_L","PAINTER","2133","842131","840472","833571","771625","NA","NA","NA","NA","NA","840972","NA","NA","NA","839972","NA","839946","2297","842481","NA","NA","NA","841014","2133","2285","NA","NA","841504","841528","839946","840972","840994","morph21_Oliver/Morris","15","11370","17","yes","1920","18"
"350","","88.88888888888889","88.88888888888889","659.1111111111111","659.1111111111111","black","no","xpyriment","legacy","legacy","0","207","NA","uniform","NA","NA","NA","1","undefined","1","0","17","17","17","0","17","17","17","NA","0","17","NA","NA","0","17","NA","17","0","17","NA","NA","NA","17","0","0","NA","NA","17","17","17","17","17","18","/","Thu Feb 15 13:18:44 2024","Executes Python code","yes","m21-ba-lexicalDecision.osexp","C:\Users\ekealey\Desktop","no","mono","no","18","no","white","no","yes","1080","legacy","17","17","C:/Users/ekealey/Desktop/subject-236.csv","xpyriment","Lentiform Loewenfeld","3.3.11","0","/","NA","NA","NA","NA","return","/","494","NA","NA","NA","NA","769327","494","2","legacy","1024","2","48000","-16","AB_m21","236","even","FILL_W","LEAK","2133","847201","844037","845698","771625","NA","NA","NA","NA","NA","844537","NA","NA","NA","843536","NA","843504","2297","847551","NA","NA","NA","844577","2133","2285","NA","NA","845072","845095","843504","844537","844557","morph21_Oliver/Morris","16","11864","18","yes","1920","9"
"250","","89.47368421052632","89.47368421052632","652.8421052631579","652.8421052631579","black","no","xpyriment","legacy","legacy","0","201","NA","uniform","NA","NA","NA","1","undefined","1","0","18","18","18","0","18","18","18","NA","0","18","NA","NA","0","18","NA","18","0","18","NA","NA","NA","18","0","0","NA","NA","18","18","18","18","18","19","/","Thu Feb 15 13:18:44 2024","Executes Python code","yes","m21-ba-lexicalDecision.osexp","C:\Users\ekealey\Desktop","no","mono","no","18","no","white","no","yes","1080","legacy","18","18","C:/Users/ekealey/Desktop/subject-236.csv","xpyriment","Lentiform Loewenfeld","3.3.11","0","/","NA","NA","NA","NA","return","/","540","NA","NA","NA","NA","769327","540","2","legacy","1024","2","48000","-16","AB_m21","236","even","CW_S","PLANNER","2133","850827","849115","845698","771625","NA","NA","NA","NA","NA","849618","NA","NA","NA","848612","NA","848577","2297","851077","NA","NA","NA","849659","2133","2285","NA","NA","850200","850223","848577","849618","849639","morph21_Oliver/Morris","17","12404","19","yes","1920","22"
"200","","90","90","645.15","645.15","black","no","xpyriment","legacy","legacy","0","207","NA","uniform","NA","NA","NA","1","undefined","1","0","19","19","19","0","19","19","19","NA","0","19","NA","NA","0","19","NA","19","0","19","NA","NA","NA","19","0","0","NA","NA","19","19","19","19","19","20","/","Thu Feb 15 13:18:44 2024","Executes Python code","yes","m21-ba-lexicalDecision.osexp","C:\Users\ekealey\Desktop","no","mono","no","18","no","white","no","yes","1080","legacy","19","19","C:/Users/ekealey/Desktop/subject-236.csv","xpyriment","Lentiform Loewenfeld","3.3.11","0","/","NA","NA","NA","NA","return","/","499","NA","NA","NA","NA","769327","499","2","legacy","1024","2","48000","-16","AB_m21","236","even","FILL_W","GOLF","2133","854331","852664","845698","771625","NA","NA","NA","NA","NA","853164","NA","NA","NA","852164","NA","852136","2297","854531","NA","NA","NA","853205","2133","2285","NA","NA","853705","853728","852136","853164","853185","morph21_Oliver/Morris","18","12903","20","yes","1920","28"
"300","","90.47619047619048","90.47619047619048","639.7619047619048","639.7619047619048","black","no","xpyriment","legacy","legacy","0","205","NA","uniform","NA","NA","NA","1","undefined","1","0","20","20","20","0","20","20","20","NA","0","20","NA","NA","0","20","NA","20","0","20","NA","NA","NA","20","0","0","NA","NA","20","20","20","20","20","21","z","Thu Feb 15 13:18:44 2024","Executes Python code","yes","m21-ba-lexicalDecision.osexp","C:\Users\ekealey\Desktop","no","mono","no","18","no","white","no","yes","1080","legacy","20","20","C:/Users/ekealey/Desktop/subject-236.csv","xpyriment","Lentiform Loewenfeld","3.3.11","0","z","NA","NA","NA","NA","return","z","532","NA","NA","NA","NA","769327","532","2","legacy","1024","2","48000","-16","AB_m21","236","even","NW_S_SIMP","FEVERIZE","2133","859326","856116","857822","771625","NA","NA","NA","NA","NA","856619","NA","NA","NA","855614","NA","855588","2297","859626","NA","NA","NA","856660","2133","2285","NA","NA","857192","857217","855588","856619","856639","morph21_Oliver/Morris","19","13435","21","yes","1920","24"
"250","","90.9090909090909","90.9090909090909","634.5","634.5","black","no","xpyriment","legacy","legacy","0","207","NA","uniform","NA","NA","NA","1","undefined","1","0","21","21","21","0","21","21","21","NA","0","21","NA","NA","0","21","NA","21","0","21","NA","NA","NA","21","0","0","NA","NA","21","21","21","21","21","22","/","Thu Feb 15 13:18:44 2024","Executes Python code","yes","m21-ba-lexicalDecision.osexp","C:\Users\ekealey\Desktop","no","mono","no","18","no","white","no","yes","1080","legacy","21","21","C:/Users/ekealey/Desktop/subject-236.csv","xpyriment","Lentiform Loewenfeld","3.3.11","0","/","NA","NA","NA","NA","return","/","524","NA","NA","NA","NA","769327","524","2","legacy","1024","2","48000","-16","AB_m21","236","even","FILL_W","SOFT","2133","862885","861192","857822","771625","NA","NA","NA","NA","NA","861692","NA","NA","NA","860692","NA","860658","2297","863135","NA","NA","NA","861732","2133","2285","NA","NA","862256","862280","860658","861692","861712","morph21_Oliver/Morris","20","13959","22","yes","1920","43"
"400","","91.30434782608695","91.30434782608695","634.304347826087","634.304347826087","black","no","xpyriment","legacy","legacy","0","204","NA","uniform","NA","NA","NA","1","undefined","1","0","22","22","22","0","22","22","22","NA","0","22","NA","NA","0","22","NA","22","0","22","NA","NA","NA","22","0","0","NA","NA","22","22","22","22","22","23","z","Thu Feb 15 13:18:44 2024","Executes Python code","yes","m21-ba-lexicalDecision.osexp","C:\Users\ekealey\Desktop","no","mono","no","18","no","white","no","yes","1080","legacy","22","22","C:/Users/ekealey/Desktop/subject-236.csv","xpyriment","Lentiform Loewenfeld","3.3.11","0","z","NA","NA","NA","NA","return","z","630","NA","NA","NA","NA","769327","630","2","legacy","1024","2","48000","-16","AB_m21","236","even","NW_L_COMP","RIPENGE","2133","866518","864716","857822","771625","NA","NA","NA","NA","NA","865218","NA","NA","NA","864215","NA","864189","2297","866918","NA","NA","NA","865258","2133","2285","NA","NA","865888","865914","864189","865217","865238","morph21_Oliver/Morris","21","14589","23","yes","1920","4"
"300","","91.66666666666667","91.66666666666667","634.4166666666666","634.4166666666666","black","no","xpyriment","legacy","legacy","0","205","NA","uniform","NA","NA","NA","1","undefined","1","0","23","23","23","0","23","23","23","NA","0","23","NA","NA","0","23","NA","23","0","23","NA","NA","NA","23","0","0","NA","NA","23","23","23","23","23","24","z","Thu Feb 15 13:18:44 2024","Executes Python code","yes","m21-ba-lexicalDecision.osexp","C:\Users\ekealey\Desktop","no","mono","no","18","no","white","no","yes","1080","legacy","23","23","C:/Users/ekealey/Desktop/subject-236.csv","xpyriment","Lentiform Loewenfeld","3.3.11","0","z","NA","NA","NA","NA","return","z","637","NA","NA","NA","NA","769327","637","2","legacy","1024","2","48000","-16","AB_m21","236","even","NW_S_SIMP","SOCKETER","2133","871780","868470","870277","771625","NA","NA","NA","NA","NA","868970","NA","NA","NA","867970","NA","867941","2297","872080","NA","NA","NA","869010","2133","2285","NA","NA","869648","869672","867941","868970","868990","morph21_Oliver/Morris","22","15226","24","yes","1920","1"
"250","","92","92","633.44","633.44","black","no","xpyriment","legacy","legacy","0","201","NA","uniform","NA","NA","NA","1","undefined","1","0","24","24","24","0","24","24","24","NA","0","24","NA","NA","0","24","NA","24","0","24","NA","NA","NA","24","0","0","NA","NA","24","24","24","24","24","25","/","Thu Feb 15 13:18:44 2024","Executes Python code","yes","m21-ba-lexicalDecision.osexp","C:\Users\ekealey\Desktop","no","mono","no","18","no","white","no","yes","1080","legacy","24","24","C:/Users/ekealey/Desktop/subject-236.csv","xpyriment","Lentiform Loewenfeld","3.3.11","0","/","NA","NA","NA","NA","return","/","610","NA","NA","NA","NA","769327","610","2","legacy","1024","2","48000","-16","AB_m21","236","even","CW_S","MILDNESS","2133","875412","873632","870277","771625","NA","NA","NA","NA","NA","874132","NA","NA","NA","873132","NA","873098","2297","875663","NA","NA","NA","874173","2133","2285","NA","NA","874784","874809","873098","874132","874153","morph21_Oliver/Morris","23","15836","25","yes","1920","42"
"400","","88.46153846153847","88.46153846153847","631.8076923076923","631.8076923076923","black","no","xpyriment","legacy","legacy","0","204","NA","uniform","NA","NA","NA","0","undefined","0","0","25","25","25","0","25","25","25","NA","0","25","NA","NA","0","25","NA","25","0","25","NA","NA","NA","25","0","0","NA","NA","25","25","25","25","25","26","z","Thu Feb 15 13:18:44 2024","Executes Python code","yes","m21-ba-lexicalDecision.osexp","C:\Users\ekealey\Desktop","no","mono","no","18","no","white","no","yes","1080","legacy","25","25","C:/Users/ekealey/Desktop/subject-236.csv","xpyriment","Lentiform Loewenfeld","3.3.11","0","/","NA","NA","NA","NA","return","/","591","NA","NA","NA","NA","769327","591","2","legacy","1024","2","48000","-16","AB_m21","236","even","NW_L_COMP","BOIL","2133","879060","877300","870277","771625","NA","NA","NA","NA","NA","877800","NA","NA","NA","876799","NA","876770","2297","879460","NA","NA","NA","877840","2133","2285","NA","NA","878432","878457","876770","877800","877820","morph21_Oliver/Morris","23","16427","26","yes","1920","18"
"400","","88.88888888888889","88.88888888888889","623.5925925925926","623.5925925925926","black","no","xpyriment","legacy","legacy","0","207","NA","uniform","NA","NA","NA","1","undefined","1","0","26","26","26","0","26","26","26","NA","0","26","NA","NA","0","26","NA","26","0","26","NA","NA","NA","26","0","0","NA","NA","26","26","26","26","26","27","/","Thu Feb 15 13:18:44 2024","Executes Python code","yes","m21-ba-lexicalDecision.osexp","C:\Users\ekealey\Desktop","no","mono","no","18","no","white","no","yes","1080","legacy","26","26","C:/Users/ekealey/Desktop/subject-236.csv","xpyriment","Lentiform Loewenfeld","3.3.11","0","/","NA","NA","NA","NA","return","/","410","NA","NA","NA","NA","769327","410","2","legacy","1024","2","48000","-16","AB_m21","236","even","FILL_W","CRUNCH","2133","884118","881032","882615","771625","NA","NA","NA","NA","NA","881532","NA","NA","NA","880532","NA","880504","2297","884519","NA","NA","NA","881573","2133","2285","NA","NA","881984","882010","880504","881532","881553","morph21_Oliver/Morris","24","16837","27","yes","1920","20"
"300","","89.28571428571429","89.28571428571429","619.5","619.5","black","no","xpyriment","legacy","legacy","0","207","NA","uniform","NA","NA","NA","1","undefined","1","0","27","27","27","0","27","27","27","NA","0","27","NA","NA","0","27","NA","27","0","27","NA","NA","NA","27","0","0","NA","NA","27","27","27","27","27","28","/","Thu Feb 15 13:18:44 2024","Executes Python code","yes","m21-ba-lexicalDecision.osexp","C:\Users\ekealey\Desktop","no","mono","no","18","no","white","no","yes","1080","legacy","27","27","C:/Users/ekealey/Desktop/subject-236.csv","xpyriment","Lentiform Loewenfeld","3.3.11","0","/","NA","NA","NA","NA","return","/","509","NA","NA","NA","NA","769327","509","2","legacy","1024","2","48000","-16","AB_m21","236","even","FILL_W","BLUNT","2133","887749","886070","882615","771625","NA","NA","NA","NA","NA","886570","NA","NA","NA","885570","NA","885537","2297","888049","NA","NA","NA","886611","2133","2285","NA","NA","887120","887146","885537","886570","886591","morph21_Oliver/Morris","25","17346","28","yes","1920","4"
"200","","89.65517241379311","89.65517241379311","618.4827586206897","618.4827586206897","black","no","xpyriment","legacy","legacy","0","208","NA","uniform","NA","NA","NA","1","undefined","1","0","28","28","28","0","28","28","28","NA","0","28","NA","NA","0","28","NA","28","0","28","NA","NA","NA","28","0","0","NA","NA","28","28","28","28","28","29","z","Thu Feb 15 13:18:44 2024","Executes Python code","yes","m21-ba-lexicalDecision.osexp","C:\Users\ekealey\Desktop","no","mono","no","18","no","white","no","yes","1080","legacy","28","28","C:/Users/ekealey/Desktop/subject-236.csv","xpyriment","Lentiform Loewenfeld","3.3.11","0","z","NA","NA","NA","NA","return","z","590","NA","NA","NA","NA","769327","590","2","legacy","1024","2","48000","-16","AB_m21","236","even","FILL_NW","PUCTS","2133","891363","889604","882615","771625","NA","NA","NA","NA","NA","890104","NA","NA","NA","889104","NA","889079","2297","891563","NA","NA","NA","890145","2133","2285","NA","NA","890736","890760","889079","890104","890125","morph21_Oliver/Morris","26","17936","29","yes","1920","40"
"400","","90","90","616.8333333333334","616.8333333333334","black","no","xpyriment","legacy","legacy","0","207","NA","uniform","NA","NA","NA","1","undefined","1","0","29","29","29","0","29","29","29","NA","0","29","NA","NA","0","29","NA","29","0","29","NA","NA","NA","29","0","0","NA","NA","29","29","29","29","29","30","/","Thu Feb 15 13:18:44 2024","Executes Python code","yes","m21-ba-lexicalDecision.osexp","C:\Users\ekealey\Desktop","no","mono","no","18","no","white","no","yes","1080","legacy","29","29","C:/Users/ekealey/Desktop/subject-236.csv","xpyriment","Lentiform Loewenfeld","3.3.11","0","/","NA","NA","NA","NA","return","/","569","NA","NA","NA","NA","769327","569","2","legacy","1024","2","48000","-16","AB_m21","236","even","FILL_W","DRUNK","2133","896389","893144","894886","771625","NA","NA","NA","NA","NA","893646","NA","NA","NA","892644","NA","892618","2297","896789","NA","NA","NA","893687","2133","2285","NA","NA","894256","894282","892618","893646","893667","morph21_Oliver/Morris","27","18505","30","yes","1920","19"
"300","","90.3225806451613","90.3225806451613","622.483870967742","622.483870967742","black","no","xpyriment","legacy","legacy","0","201","NA","uniform","NA","NA","NA","1","undefined","1","0","30","30","30","0","30","30","30","NA","0","30","NA","NA","0","30","NA","30","0","30","NA","NA","NA","30","0","0","NA","NA","30","30","30","30","30","31","/","Thu Feb 15 13:18:44 2024","Executes Python code","yes","m21-ba-lexicalDecision.osexp","C:\Users\ekealey\Desktop","no","mono","no","18","no","white","no","yes","1080","legacy","30","30","C:/Users/ekealey/Desktop/subject-236.csv","xpyriment","Lentiform Loewenfeld","3.3.11","0","/","NA","NA","NA","NA","return","/","792","NA","NA","NA","NA","769327","792","2","legacy","1024","2","48000","-16","AB_m21","236","even","CW_S","DESTROYER","2133","900300","898338","894886","771625","NA","NA","NA","NA","NA","898838","NA","NA","NA","897837","NA","897803","2297","900600","NA","NA","NA","898879","2133","2285","NA","NA","899672","899697","897803","898838","898859","morph21_Oliver/Morris","28","19297","31","yes","1920","14"
"200","","90.625","90.625","624.3125","624.3125","black","no","xpyriment","legacy","legacy","0","208","NA","uniform","NA","NA","NA","1","undefined","1","0","31","31","31","0","31","31","31","NA","0","31","NA","NA","0","31","NA","31","0","31","NA","NA","NA","31","0","0","NA","NA","31","31","31","31","31","32","z","Thu Feb 15 13:18:44 2024","Executes Python code","yes","m21-ba-lexicalDecision.osexp","C:\Users\ekealey\Desktop","no","mono","no","18","no","white","no","yes","1080","legacy","31","31","C:/Users/ekealey/Desktop/subject-236.csv","xpyriment","Lentiform Loewenfeld","3.3.11","0","z","NA","NA","NA","NA","return","z","681","NA","NA","NA","NA","769327","681","2","legacy","1024","2","48000","-16","AB_m21","236","even","FILL_NW","HESK","2133","904022","902170","894886","771625","NA","NA","NA","NA","NA","902670","NA","NA","NA","901670","NA","901642","2297","904222","NA","NA","NA","902711","2133","2285","NA","NA","903392","903418","901642","902670","902691","morph21_Oliver/Morris","29","19978","32","yes","1920","29"
"350","","90.9090909090909","90.9090909090909","620.3636363636364","620.3636363636364","black","no","xpyriment","legacy","legacy","0","207","NA","uniform","NA","NA","NA","1","undefined","1","0","32","32","32","0","32","32","32","NA","0","32","NA","NA","0","32","NA","32","0","32","NA","NA","NA","32","0","0","NA","NA","32","32","32","32","32","33","/","Thu Feb 15 13:18:44 2024","Executes Python code","yes","m21-ba-lexicalDecision.osexp","C:\Users\ekealey\Desktop","no","mono","no","18","no","white","no","yes","1080","legacy","32","32","C:/Users/ekealey/Desktop/subject-236.csv","xpyriment","Lentiform Loewenfeld","3.3.11","0","/","NA","NA","NA","NA","return","/","494","NA","NA","NA","NA","769327","494","2","legacy","1024","2","48000","-16","AB_m21","236","even","FILL_W","GLOOM","2133","908949","905779","907445","771625","NA","NA","NA","NA","NA","906280","NA","NA","NA","905277","NA","905250","2297","909299","NA","NA","NA","906321","2133","2285","NA","NA","906816","906840","905250","906280","906301","morph21_Oliver/Morris","30","20472","33","yes","1920","14"
"250","","91.17647058823529","91.17647058823529","618.7352941176471","618.7352941176471","black","no","xpyriment","legacy","legacy","0","207","NA","uniform","NA","NA","NA","1","undefined","1","0","33","33","33","0","33","33","33","NA","0","33","NA","NA","0","33","NA","33","0","33","NA","NA","NA","33","0","0","NA","NA","33","33","33","33","33","34","/","Thu Feb 15 13:18:44 2024","Executes Python code","yes","m21-ba-lexicalDecision.osexp","C:\Users\ekealey\Desktop","no","mono","no","18","no","white","no","yes","1080","legacy","33","33","C:/Users/ekealey/Desktop/subject-236.csv","xpyriment","Lentiform Loewenfeld","3.3.11","0","/","NA","NA","NA","NA","return","/","565","NA","NA","NA","NA","769327","565","2","legacy","1024","2","48000","-16","AB_m21","236","even","FILL_W","TREAT","2133","912596","910861","907445","771625","NA","NA","NA","NA","NA","911361","NA","NA","NA","910361","NA","910330","2297","912846","NA","NA","NA","911403","2133","2285","NA","NA","911968","911993","910330","911361","911382","morph21_Oliver/Morris","31","21037","34","yes","1920","48"
"300","","91.42857142857143","91.42857142857143","616.6857142857143","616.6857142857143","black","no","xpyriment","legacy","legacy","0","202","NA","uniform","NA","NA","NA","1","undefined","1","0","34","34","34","0","34","34","34","NA","0","34","NA","NA","0","34","NA","34","0","34","NA","NA","NA","34","0","0","NA","NA","34","34","34","34","34","35","/","Thu Feb 15 13:18:44 2024","Executes Python code","yes","m21-ba-lexicalDecision.osexp","C:\Users\ekealey\Desktop","no","mono","no","18","no","white","no","yes","1080","legacy","34","34","C:/Users/ekealey/Desktop/subject-236.csv","xpyriment","Lentiform Loewenfeld","3.3.11","0","/","NA","NA","NA","NA","return","/","547","NA","NA","NA","NA","769327","547","2","legacy","1024","2","48000","-16","AB_m21","236","even","CW_L","HEATER","2133","916099","914381","907445","771625","NA","NA","NA","NA","NA","914883","NA","NA","NA","913880","NA","913849","2297","916399","NA","NA","NA","914924","2133","2285","NA","NA","915472","915495","913849","914883","914904","morph21_Oliver/Morris","32","21584","35","yes","1920","16"
"350","","91.66666666666667","91.66666666666667","619.7777777777778","619.7777777777778","black","no","xpyriment","legacy","legacy","0","206","NA","uniform","NA","NA","NA","1","undefined","1","0","35","35","35","0","35","35","35","NA","0","35","NA","NA","0","35","NA","35","0","35","NA","NA","NA","35","0","0","NA","NA","35","35","35","35","35","36","z","Thu Feb 15 13:18:44 2024","Executes Python code","yes","m21-ba-lexicalDecision.osexp","C:\Users\ekealey\Desktop","no","mono","no","18","no","white","no","yes","1080","legacy","35","35","C:/Users/ekealey/Desktop/subject-236.csv","xpyriment","Lentiform Loewenfeld","3.3.11","0","z","NA","NA","NA","NA","return","z","728","NA","NA","NA","NA","769327","728","2","legacy","1024","2","48000","-16","AB_m21","236","even","NW_L_SIMP","HABITIC","2133","921364","917963","919860","771625","NA","NA","NA","NA","NA","918463","NA","NA","NA","917463","NA","917435","2297","921714","NA","NA","NA","918504","2133","2285","NA","NA","919232","919257","917435","918463","918484","morph21_Oliver/Morris","33","22312","36","yes","1920","7"
"300","","91.89189189189189","91.89189189189189","619.5405405405405","619.5405405405405","black","no","xpyriment","legacy","legacy","0","204","NA","uniform","NA","NA","NA","1","undefined","1","0","36","36","36","0","36","36","36","NA","0","36","NA","NA","0","36","NA","36","0","36","NA","NA","NA","36","0","0","NA","NA","36","36","36","36","36","37","z","Thu Feb 15 13:18:44 2024","Executes Python code","yes","m21-ba-lexicalDecision.osexp","C:\Users\ekealey\Desktop","no","mono","no","18","no","white","no","yes","1080","legacy","36","36","C:/Users/ekealey/Desktop/subject-236.csv","xpyriment","Lentiform Loewenfeld","3.3.11","0","z","NA","NA","NA","NA","return","z","611","NA","NA","NA","NA","769327","611","2","legacy","1024","2","48000","-16","AB_m21","236","even","NW_L_COMP","EMPLOYNELS","2133","925059","923280","919860","771625","NA","NA","NA","NA","NA","923781","NA","NA","NA","922778","NA","922739","2297","925359","NA","NA","NA","923821","2133","2285","NA","NA","924432","924456","922739","923780","923801","morph21_Oliver/Morris","34","22923","37","yes","1920","21"
"250","","92.10526315789474","92.10526315789474","622.8421052631579","622.8421052631579","black","no","xpyriment","legacy","legacy","0","201","NA","uniform","NA","NA","NA","1","undefined","1","0","37","37","37","0","37","37","37","NA","0","37","NA","NA","0","37","NA","37","0","37","NA","NA","NA","37","0","0","NA","NA","37","37","37","37","37","38","/","Thu Feb 15 13:18:44 2024","Executes Python code","yes","m21-ba-lexicalDecision.osexp","C:\Users\ekealey\Desktop","no","mono","no","18","no","white","no","yes","1080","legacy","37","37","C:/Users/ekealey/Desktop/subject-236.csv","xpyriment","Lentiform Loewenfeld","3.3.11","0","/","NA","NA","NA","NA","return","/","745","NA","NA","NA","NA","769327","745","2","legacy","1024","2","48000","-16","AB_m21","236","even","CW_S","HUGELY","2133","928845","926929","919860","771625","NA","NA","NA","NA","NA","927429","NA","NA","NA","926429","NA","926400","2297","929095","NA","NA","NA","927470","2133","2285","NA","NA","928216","928241","926400","927429","927450","morph21_Oliver/Morris","35","23668","38","yes","1920","35"
"300","","92.3076923076923","92.3076923076923","620.5128205128206","620.5128205128206","black","no","xpyriment","legacy","legacy","0","208","NA","uniform","NA","NA","NA","1","undefined","1","0","38","38","38","0","38","38","38","NA","0","38","NA","NA","0","38","NA","38","0","38","NA","NA","NA","38","0","0","NA","NA","38","38","38","38","38","39","z","Thu Feb 15 13:18:44 2024","Executes Python code","yes","m21-ba-lexicalDecision.osexp","C:\Users\ekealey\Desktop","no","mono","no","18","no","white","no","yes","1080","legacy","38","38","C:/Users/ekealey/Desktop/subject-236.csv","xpyriment","Lentiform Loewenfeld","3.3.11","0","z","NA","NA","NA","NA","return","z","532","NA","NA","NA","NA","769327","532","2","legacy","1024","2","48000","-16","AB_m21","236","even","FILL_NW","TREMP","2133","933898","930694","932395","771625","NA","NA","NA","NA","NA","931194","NA","NA","NA","930193","NA","930165","2297","934198","NA","NA","NA","931235","2133","2285","NA","NA","931768","931792","930165","931194","931215","morph21_Oliver/Morris","36","24200","39","yes","1920","20"
"300","","92.5","92.5","619.25","619.25","black","no","xpyriment","legacy","legacy","0","204","NA","uniform","NA","NA","NA","1","undefined","1","0","39","39","39","0","39","39","39","NA","0","39","NA","NA","0","39","NA","39","0","39","NA","NA","NA","39","0","0","NA","NA","39","39","39","39","39","40","z","Thu Feb 15 13:18:44 2024","Executes Python code","yes","m21-ba-lexicalDecision.osexp","C:\Users\ekealey\Desktop","no","mono","no","18","no","white","no","yes","1080","legacy","39","39","C:/Users/ekealey/Desktop/subject-236.csv","xpyriment","Lentiform Loewenfeld","3.3.11","0","z","NA","NA","NA","NA","return","z","570","NA","NA","NA","NA","769327","570","2","legacy","1024","2","48000","-16","AB_m21","236","even","NW_L_COMP","ILLILT","2133","937524","935784","932395","771625","NA","NA","NA","NA","NA","936285","NA","NA","NA","935282","NA","935257","2297","937824","NA","NA","NA","936325","2133","2285","NA","NA","936895","936920","935257","936285","936305","morph21_Oliver/Morris","37","24770","40","yes","1920","9"
"400","","92.6829268292683","92.6829268292683","622.0731707317074","622.0731707317074","black","no","xpyriment","legacy","legacy","0","205","NA","uniform","NA","NA","NA","1","undefined","1","0","40","40","40","0","40","40","40","NA","0","40","NA","NA","0","40","NA","40","0","40","NA","NA","NA","40","0","0","NA","NA","40","40","40","40","40","41","z","Thu Feb 15 13:18:44 2024","Executes Python code","yes","m21-ba-lexicalDecision.osexp","C:\Users\ekealey\Desktop","no","mono","no","18","no","white","no","yes","1080","legacy","40","40","C:/Users/ekealey/Desktop/subject-236.csv","xpyriment","Lentiform Loewenfeld","3.3.11","0","z","NA","NA","NA","NA","return","z","735","NA","NA","NA","NA","769327","735","2","legacy","1024","2","48000","-16","AB_m21","236","even","NW_S_SIMP","AIDIC","2133","941276","939371","932395","771625","NA","NA","NA","NA","NA","939871","NA","NA","NA","938870","NA","938844","2297","941676","NA","NA","NA","939912","2133","2285","NA","NA","940648","940671","938844","939871","939892","morph21_Oliver/Morris","38","25505","41","yes","1920","4"
"350","","92.85714285714286","92.85714285714286","621.1904761904761","621.1904761904761","black","no","xpyriment","legacy","legacy","0","201","NA","uniform","NA","NA","NA","1","undefined","1","0","41","41","41","0","41","41","41","NA","0","41","NA","NA","0","41","NA","41","0","41","NA","NA","NA","41","0","0","NA","NA","41","41","41","41","41","42","/","Thu Feb 15 13:18:44 2024","Executes Python code","yes","m21-ba-lexicalDecision.osexp","C:\Users\ekealey\Desktop","no","mono","no","18","no","white","no","yes","1080","legacy","41","41","C:/Users/ekealey/Desktop/subject-236.csv","xpyriment","Lentiform Loewenfeld","3.3.11","0","/","NA","NA","NA","NA","return","/","585","NA","NA","NA","NA","769327","585","2","legacy","1024","2","48000","-16","AB_m21","236","even","CW_S","LENDER","2133","946524","943267","945020","771625","NA","NA","NA","NA","NA","943767","NA","NA","NA","942766","NA","942736","2297","946874","NA","NA","NA","943807","2133","2285","NA","NA","944392","944416","942736","943767","943787","morph21_Oliver/Morris","39","26090","42","yes","1920","11"
"200","","93.02325581395348","93.02325581395348","619.3488372093024","619.3488372093024","black","no","xpyriment","legacy","legacy","0","208","NA","uniform","NA","NA","NA","1","undefined","1","0","42","42","42","0","42","42","42","NA","0","42","NA","NA","0","42","NA","42","0","42","NA","NA","NA","42","0","0","NA","NA","42","42","42","42","42","43","z","Thu Feb 15 13:18:44 2024","Executes Python code","yes","m21-ba-lexicalDecision.osexp","C:\Users\ekealey\Desktop","no","mono","no","18","no","white","no","yes","1080","legacy","42","42","C:/Users/ekealey/Desktop/subject-236.csv","xpyriment","Lentiform Loewenfeld","3.3.11","0","z","NA","NA","NA","NA","return","z","542","NA","NA","NA","NA","769327","542","2","legacy","1024","2","48000","-16","AB_m21","236","even","FILL_NW","PORDS","2133","950156","948443","945020","771625","NA","NA","NA","NA","NA","948944","NA","NA","NA","947943","NA","947908","2297","950356","NA","NA","NA","948985","2133","2285","NA","NA","949527","949552","947908","948944","948965","morph21_Oliver/Morris","40","26632","43","yes","1920","39"
"300","","93.18181818181819","93.18181818181819","616.5454545454545","616.5454545454545","black","no","xpyriment","legacy","legacy","0","208","NA","uniform","NA","NA","NA","1","undefined","1","0","43","43","43","0","43","43","43","NA","0","43","NA","NA","0","43","NA","43","0","43","NA","NA","NA","43","0","0","NA","NA","43","43","43","43","43","44","z","Thu Feb 15 13:18:44 2024","Executes Python code","yes","m21-ba-lexicalDecision.osexp","C:\Users\ekealey\Desktop","no","mono","no","18","no","white","no","yes","1080","legacy","43","43","C:/Users/ekealey/Desktop/subject-236.csv","xpyriment","Lentiform Loewenfeld","3.3.11","0","z","NA","NA","NA","NA","return","z","496","NA","NA","NA","NA","769327","496","2","legacy","1024","2","48000","-16","AB_m21","236","even","FILL_NW","SCURE","2133","953587","951921","945020","771625","NA","NA","NA","NA","NA","952423","NA","NA","NA","951421","NA","951393","2297","953888","NA","NA","NA","952463","2133","2285","NA","NA","952959","952984","951393","952423","952443","morph21_Oliver/Morris","41","27128","44","yes","1920","41"
"400","","93.33333333333333","93.33333333333333","618.0666666666667","618.0666666666667","black","no","xpyriment","legacy","legacy","0","201","NA","uniform","NA","NA","NA","1","undefined","1","0","44","44","44","0","44","44","44","NA","0","44","NA","NA","0","44","NA","44","0","44","NA","NA","NA","44","0","0","NA","NA","44","44","44","44","44","45","/","Thu Feb 15 13:18:44 2024","Executes Python code","yes","m21-ba-lexicalDecision.osexp","C:\Users\ekealey\Desktop","no","mono","no","18","no","white","no","yes","1080","legacy","44","44","C:/Users/ekealey/Desktop/subject-236.csv","xpyriment","Lentiform Loewenfeld","3.3.11","0","/","NA","NA","NA","NA","return","/","685","NA","NA","NA","NA","769327","685","2","legacy","1024","2","48000","-16","AB_m21","236","even","CW_S","DIETARY","2133","958794","955437","957292","771625","NA","NA","NA","NA","NA","955937","NA","NA","NA","954937","NA","954913","2297","959194","NA","NA","NA","955978","2133","2285","NA","NA","956664","956689","954913","955937","955958","morph21_Oliver/Morris","42","27813","45","yes","1920","6"
"350","","93.47826086956522","93.47826086956522","615.9347826086956","615.9347826086956","black","no","xpyriment","legacy","legacy","0","201","NA","uniform","NA","NA","NA","1","undefined","1","0","45","45","45","0","45","45","45","NA","0","45","NA","NA","0","45","NA","45","0","45","NA","NA","NA","45","0","0","NA","NA","45","45","45","45","45","46","/","Thu Feb 15 13:18:44 2024","Executes Python code","yes","m21-ba-lexicalDecision.osexp","C:\Users\ekealey\Desktop","no","mono","no","18","no","white","no","yes","1080","legacy","45","45","C:/Users/ekealey/Desktop/subject-236.csv","xpyriment","Lentiform Loewenfeld","3.3.11","0","/","NA","NA","NA","NA","return","/","520","NA","NA","NA","NA","769327","520","2","legacy","1024","2","48000","-16","AB_m21","236","even","CW_S","BOSSY","2133","962445","960755","957292","771625","NA","NA","NA","NA","NA","961256","NA","NA","NA","960253","NA","960221","2297","962795","NA","NA","NA","961296","2133","2285","NA","NA","961816","961840","960221","961255","961276","morph21_Oliver/Morris","43","28333","46","yes","1920","49"
"350","","93.61702127659575","93.61702127659575","612.3404255319149","612.3404255319149","black","no","xpyriment","legacy","legacy","0","207","NA","uniform","NA","NA","NA","1","undefined","1","0","46","46","46","0","46","46","46","NA","0","46","NA","NA","0","46","NA","46","0","46","NA","NA","NA","46","0","0","NA","NA","46","46","46","46","46","47","/","Thu Feb 15 13:18:44 2024","Executes Python code","yes","m21-ba-lexicalDecision.osexp","C:\Users\ekealey\Desktop","no","mono","no","18","no","white","no","yes","1080","legacy","46","46","C:/Users/ekealey/Desktop/subject-236.csv","xpyriment","Lentiform Loewenfeld","3.3.11","0","/","NA","NA","NA","NA","return","/","447","NA","NA","NA","NA","769327","447","2","legacy","1024","2","48000","-16","AB_m21","236","even","FILL_W","WEIRD","2133","965972","964355","957292","771625","NA","NA","NA","NA","NA","964856","NA","NA","NA","963854","NA","963828","2297","966322","NA","NA","NA","964896","2133","2285","NA","NA","965344","965369","963828","964856","964876","morph21_Oliver/Morris","44","28780","47","yes","1920","2"
"250","","93.75","93.75","610.1041666666666","610.1041666666666","black","no","xpyriment","legacy","legacy","0","208","NA","uniform","NA","NA","NA","1","undefined","1","0","47","47","47","0","47","47","47","NA","0","47","NA","NA","0","47","NA","47","0","47","NA","NA","NA","47","0","0","NA","NA","47","47","47","47","47","48","z","Thu Feb 15 13:18:44 2024","Executes Python code","yes","m21-ba-lexicalDecision.osexp","C:\Users\ekealey\Desktop","no","mono","no","18","no","white","no","yes","1080","legacy","47","47","C:/Users/ekealey/Desktop/subject-236.csv","xpyriment","Lentiform Loewenfeld","3.3.11","0","z","NA","NA","NA","NA","return","z","505","NA","NA","NA","NA","769327","505","2","legacy","1024","2","48000","-16","AB_m21","236","even","FILL_NW","BUWL","2133","971044","967866","969540","771625","NA","NA","NA","NA","NA","968366","NA","NA","NA","967366","NA","967337","2297","971295","NA","NA","NA","968407","2133","2285","NA","NA","968912","968936","967337","968366","968387","morph21_Oliver/Morris","45","29285","48","yes","1920","9"
"200","","93.87755102040816","93.87755102040816","608.6938775510204","608.6938775510204","black","no","xpyriment","legacy","legacy","0","202","NA","uniform","NA","NA","NA","1","undefined","1","0","48","48","48","0","48","48","48","NA","0","48","NA","NA","0","48","NA","48","0","48","NA","NA","NA","48","0","0","NA","NA","48","48","48","48","48","49","/","Thu Feb 15 13:18:44 2024","Executes Python code","yes","m21-ba-lexicalDecision.osexp","C:\Users\ekealey\Desktop","no","mono","no","18","no","white","no","yes","1080","legacy","48","48","C:/Users/ekealey/Desktop/subject-236.csv","xpyriment","Lentiform Loewenfeld","3.3.11","0","/","NA","NA","NA","NA","return","/","541","NA","NA","NA","NA","769327","541","2","legacy","1024","2","48000","-16","AB_m21","236","even","CW_L","COLLECTOR","2133","974563","972853","969540","771625","NA","NA","NA","NA","NA","973354","NA","NA","NA","972352","NA","972324","2297","974763","NA","NA","NA","973394","2133","2285","NA","NA","973935","973960","972324","973354","973374","morph21_Oliver/Morris","46","29826","49","yes","1920","46"
"300","","94","94","605.92","605.92","black","no","xpyriment","legacy","legacy","0","202","NA","uniform","NA","NA","NA","1","undefined","1","0","49","49","49","0","49","49","49","NA","0","49","NA","NA","0","49","NA","49","0","49","NA","NA","NA","49","0","0","NA","NA","49","49","49","49","49","50","/","Thu Feb 15 13:18:44 2024","Executes Python code","yes","m21-ba-lexicalDecision.osexp","C:\Users\ekealey\Desktop","no","mono","no","18","no","white","no","yes","1080","legacy","49","49","C:/Users/ekealey/Desktop/subject-236.csv","xpyriment","Lentiform Loewenfeld","3.3.11","0","/","NA","NA","NA","NA","return","/","470","NA","NA","NA","NA","769327","470","2","legacy","1024","2","48000","-16","AB_m21","236","even","CW_L","PROFESSOR","2133","977949","976309","969540","771625","NA","NA","NA","NA","NA","976809","NA","NA","NA","975807","NA","975778","2297","978249","NA","NA","NA","976849","2133","2285","NA","NA","977320","977346","975778","976809","976829","morph21_Oliver/Morris","47","30296","50","yes","1920","47"
"400","","94.11764705882354","94.11764705882354","603.4705882352941","603.4705882352941","black","no","xpyriment","legacy","legacy","0","208","NA","uniform","NA","NA","NA","1","undefined","1","0","50","50","50","0","50","50","50","NA","0","50","NA","NA","0","50","NA","50","0","50","NA","NA","NA","50","0","0","NA","NA","50","50","50","50","50","51","z","Thu Feb 15 13:18:44 2024","Executes Python code","yes","m21-ba-lexicalDecision.osexp","C:\Users\ekealey\Desktop","no","mono","no","18","no","white","no","yes","1080","legacy","50","50","C:/Users/ekealey/Desktop/subject-236.csv","xpyriment","Lentiform Loewenfeld","3.3.11","0","z","NA","NA","NA","NA","return","z","481","NA","NA","NA","NA","769327","481","2","legacy","1024","2","48000","-16","AB_m21","236","even","FILL_NW","ULNS","2133","982964","979809","981460","771625","NA","NA","NA","NA","NA","980310","NA","NA","NA","979308","NA","979277","2297","983364","NA","NA","NA","980351","2133","2285","NA","NA","980832","980857","979277","980310","980331","morph21_Oliver/Morris","48","30777","51","yes","1920","45"
"300","","92.3076923076923","92.3076923076923","605.1153846153846","605.1153846153846","black","no","xpyriment","legacy","legacy","0","202","NA","uniform","NA","NA","NA","0","undefined","0","0","51","51","51","0","51","51","51","NA","0","51","NA","NA","0","51","NA","51","0","51","NA","NA","NA","51","0","0","NA","NA","51","51","51","51","51","52","/","Thu Feb 15 13:18:44 2024","Executes Python code","yes","m21-ba-lexicalDecision.osexp","C:\Users\ekealey\Desktop","no","mono","no","18","no","white","no","yes","1080","legacy","51","51","C:/Users/ekealey/Desktop/subject-236.csv","xpyriment","Lentiform Loewenfeld","3.3.11","0","z","NA","NA","NA","NA","return","z","689","NA","NA","NA","NA","769327","689","2","legacy","1024","2","48000","-16","AB_m21","236","even","CW_L","DAMPISH","2133","986795","984936","981460","771625","NA","NA","NA","NA","NA","985436","NA","NA","NA","984436","NA","984406","2297","987095","NA","NA","NA","985478","2133","2285","NA","NA","986168","986192","984406","985436","985458","morph21_Oliver/Morris","48","31466","52","yes","1920","28"
"350","","92.45283018867924","92.45283018867924","605.9056603773585","605.9056603773585","black","no","xpyriment","legacy","legacy","0","203","NA","uniform","NA","NA","NA","1","undefined","1","0","52","52","52","0","52","52","52","NA","0","52","NA","NA","0","52","NA","52","0","52","NA","NA","NA","52","0","0","NA","NA","52","52","52","52","52","53","z","Thu Feb 15 13:18:44 2024","Executes Python code","yes","m21-ba-lexicalDecision.osexp","C:\Users\ekealey\Desktop","no","mono","no","18","no","white","no","yes","1080","legacy","52","52","C:/Users/ekealey/Desktop/subject-236.csv","xpyriment","Lentiform Loewenfeld","3.3.11","0","z","NA","NA","NA","NA","return","z","647","NA","NA","NA","NA","769327","647","2","legacy","1024","2","48000","-16","AB_m21","236","even","NW_S_COMP","EJECTENGE","2133","990460","988642","981460","771625","NA","NA","NA","NA","NA","989144","NA","NA","NA","988141","NA","988115","2297","990810","NA","NA","NA","989184","2133","2285","NA","NA","989832","989856","988115","989144","989164","morph21_Oliver/Morris","49","32113","53","yes","1920","20"
"400","","92.5925925925926","92.5925925925926","603.8888888888889","603.8888888888889","black","no","xpyriment","legacy","legacy","0","208","NA","uniform","NA","NA","NA","1","undefined","1","0","53","53","53","0","53","53","53","NA","0","53","NA","NA","0","53","NA","53","0","53","NA","NA","NA","53","0","0","NA","NA","53","53","53","53","53","54","z","Thu Feb 15 13:18:44 2024","Executes Python code","yes","m21-ba-lexicalDecision.osexp","C:\Users\ekealey\Desktop","no","mono","no","18","no","white","no","yes","1080","legacy","53","53","C:/Users/ekealey/Desktop/subject-236.csv","xpyriment","Lentiform Loewenfeld","3.3.11","0","z","NA","NA","NA","NA","return","z","497","NA","NA","NA","NA","769327","497","2","legacy","1024","2","48000","-16","AB_m21","236","even","FILL_NW","BALFS","2133","995548","992377","994044","771625","NA","NA","NA","NA","NA","992878","NA","NA","NA","991875","NA","991845","2297","995948","NA","NA","NA","992918","2133","2285","NA","NA","993416","993439","991845","992878","992898","morph21_Oliver/Morris","50","32610","54","yes","1920","2"
"350","","92.72727272727273","92.72727272727273","603.5636363636364","603.5636363636364","black","no","xpyriment","legacy","legacy","0","208","NA","uniform","NA","NA","NA","1","undefined","1","0","54","54","54","0","54","54","54","NA","0","54","NA","NA","0","54","NA","54","0","54","NA","NA","NA","54","0","0","NA","NA","54","54","54","54","54","55","z","Thu Feb 15 13:18:44 2024","Executes Python code","yes","m21-ba-lexicalDecision.osexp","C:\Users\ekealey\Desktop","no","mono","no","18","no","white","no","yes","1080","legacy","54","54","C:/Users/ekealey/Desktop/subject-236.csv","xpyriment","Lentiform Loewenfeld","3.3.11","0","z","NA","NA","NA","NA","return","z","586","NA","NA","NA","NA","769327","586","2","legacy","1024","2","48000","-16","AB_m21","236","even","FILL_NW","JADS","2133","999274","997520","994044","771625","NA","NA","NA","NA","NA","998021","NA","NA","NA","997019","NA","996984","2297","999624","NA","NA","NA","998061","2133","2285","NA","NA","998648","998671","996984","998021","998041","morph21_Oliver/Morris","51","33196","55","yes","1920","31"
"350","","92.85714285714286","92.85714285714286","603.0714285714286","603.0714285714286","black","no","xpyriment","legacy","legacy","0","206","NA","uniform","NA","NA","NA","1","undefined","1","0","55","55","55","0","55","55","55","NA","0","55","NA","NA","0","55","NA","55","0","55","NA","NA","NA","55","0","0","NA","NA","55","55","55","55","55","56","z","Thu Feb 15 13:18:44 2024","Executes Python code","yes","m21-ba-lexicalDecision.osexp","C:\Users\ekealey\Desktop","no","mono","no","18","no","white","no","yes","1080","legacy","55","55","C:/Users/ekealey/Desktop/subject-236.csv","xpyriment","Lentiform Loewenfeld","3.3.11","0","z","NA","NA","NA","NA","return","z","576","NA","NA","NA","NA","769327","576","2","legacy","1024","2","48000","-16","AB_m21","236","even","NW_L_SIMP","NUTLY","2133","1002939","1001194","994044","771625","NA","NA","NA","NA","NA","1001694","NA","NA","NA","1000694","NA","1000667","2297","1003289","NA","NA","NA","1001735","2133","2285","NA","NA","1002312","1002336","1000667","1001694","1001715","morph21_Oliver/Morris","52","33772","56","yes","1920","14"
"250","","92.98245614035088","92.98245614035088","604.0526315789474","604.0526315789474","black","no","xpyriment","legacy","legacy","0","201","NA","uniform","NA","NA","NA","1","undefined","1","0","56","56","56","0","56","56","56","NA","0","56","NA","NA","0","56","NA","56","0","56","NA","NA","NA","56","0","0","NA","NA","56","56","56","56","56","57","/","Thu Feb 15 13:18:44 2024","Executes Python code","yes","m21-ba-lexicalDecision.osexp","C:\Users\ekealey\Desktop","no","mono","no","18","no","white","no","yes","1080","legacy","56","56","C:/Users/ekealey/Desktop/subject-236.csv","xpyriment","Lentiform Loewenfeld","3.3.11","0","/","NA","NA","NA","NA","return","/","659","NA","NA","NA","NA","769327","659","2","legacy","1024","2","48000","-16","AB_m21","236","even","CW_S","GRIMLY","2133","1008187","1004856","1006684","771625","NA","NA","NA","NA","NA","1005356","NA","NA","NA","1004356","NA","1004329","2297","1008437","NA","NA","NA","1005396","2133","2285","NA","NA","1006056","1006081","1004329","1005356","1005376","morph21_Oliver/Morris","53","34431","57","yes","1920","31"
"350","","93.10344827586206","93.10344827586206","603.448275862069","603.448275862069","black","no","xpyriment","legacy","legacy","0","202","NA","uniform","NA","NA","NA","1","undefined","1","0","57","57","57","0","57","57","57","NA","0","57","NA","NA","0","57","NA","57","0","57","NA","NA","NA","57","0","0","NA","NA","57","57","57","57","57","58","/","Thu Feb 15 13:18:44 2024","Executes Python code","yes","m21-ba-lexicalDecision.osexp","C:\Users\ekealey\Desktop","no","mono","no","18","no","white","no","yes","1080","legacy","57","57","C:/Users/ekealey/Desktop/subject-236.csv","xpyriment","Lentiform Loewenfeld","3.3.11","0","/","NA","NA","NA","NA","return","/","569","NA","NA","NA","NA","769327","569","2","legacy","1024","2","48000","-16","AB_m21","236","even","CW_L","FEEDER","2133","1011722","1009984","1006684","771625","NA","NA","NA","NA","NA","1010485","NA","NA","NA","1009483","NA","1009451","2297","1012072","NA","NA","NA","1010526","2133","2285","NA","NA","1011096","1011119","1009450","1010485","1010506","morph21_Oliver/Morris","54","35000","58","yes","1920","14"
"300","","93.22033898305085","93.22033898305085","602.9322033898305","602.9322033898305","black","no","xpyriment","legacy","legacy","0","205","NA","uniform","NA","NA","NA","1","undefined","1","0","58","58","58","0","58","58","58","NA","0","58","NA","NA","0","58","NA","58","0","58","NA","NA","NA","58","0","0","NA","NA","58","58","58","58","58","59","z","Thu Feb 15 13:18:44 2024","Executes Python code","yes","m21-ba-lexicalDecision.osexp","C:\Users\ekealey\Desktop","no","mono","no","18","no","white","no","yes","1080","legacy","58","58","C:/Users/ekealey/Desktop/subject-236.csv","xpyriment","Lentiform Loewenfeld","3.3.11","0","z","NA","NA","NA","NA","return","z","573","NA","NA","NA","NA","769327","573","2","legacy","1024","2","48000","-16","AB_m21","236","even","NW_S_SIMP","HELMETOUS","2133","1015372","1013629","1006684","771625","NA","NA","NA","NA","NA","1014129","NA","NA","NA","1013129","NA","1013100","2297","1015672","NA","NA","NA","1014170","2133","2285","NA","NA","1014744","1014768","1013100","1014129","1014149","morph21_Oliver/Morris","55","35573","59","yes","1920","14"
"300","","93.33333333333333","93.33333333333333","600.6333333333333","600.6333333333333","black","no","xpyriment","legacy","legacy","0","208","NA","uniform","NA","NA","NA","1","undefined","1","0","59","59","59","0","59","59","59","NA","0","59","NA","NA","0","59","NA","59","0","59","NA","NA","NA","59","0","0","NA","NA","59","59","59","59","59","60","z","Thu Feb 15 13:18:44 2024","Executes Python code","yes","m21-ba-lexicalDecision.osexp","C:\Users\ekealey\Desktop","no","mono","no","18","no","white","no","yes","1080","legacy","59","59","C:/Users/ekealey/Desktop/subject-236.csv","xpyriment","Lentiform Loewenfeld","3.3.11","0","z","NA","NA","NA","NA","return","z","465","NA","NA","NA","NA","769327","465","2","legacy","1024","2","48000","-16","AB_m21","236","even","FILL_NW","KEMT","2133","1020402","1017266","1018899","771625","NA","NA","NA","NA","NA","1017766","NA","NA","NA","1016766","NA","1016739","2297","1020702","NA","NA","NA","1017806","2133","2285","NA","NA","1018272","1018295","1016739","1017766","1017786","morph21_Oliver/Morris","56","36038","60","yes","1920","32"
"350","","93.44262295081967","93.44262295081967","603.8688524590164","603.8688524590164","black","no","xpyriment","legacy","legacy","0","206","NA","uniform","NA","NA","NA","1","undefined","1","0","60","60","60","0","60","60","60","NA","0","60","NA","NA","0","60","NA","60","0","60","NA","NA","NA","60","0","0","NA","NA","60","60","60","60","60","61","z","Thu Feb 15 13:18:44 2024","Executes Python code","yes","m21-ba-lexicalDecision.osexp","C:\Users\ekealey\Desktop","no","mono","no","18","no","white","no","yes","1080","legacy","60","60","C:/Users/ekealey/Desktop/subject-236.csv","xpyriment","Lentiform Loewenfeld","3.3.11","0","z","NA","NA","NA","NA","return","z","798","NA","NA","NA","NA","769327","798","2","legacy","1024","2","48000","-16","AB_m21","236","even","NW_L_SIMP","WITCHISH","2133","1024213","1022243","1018899","771625","NA","NA","NA","NA","NA","1022745","NA","NA","NA","1021741","NA","1021714","2297","1024563","NA","NA","NA","1022785","2133","2285","NA","NA","1023584","1023609","1021714","1022745","1022765","morph21_Oliver/Morris","57","36836","61","yes","1920","11"
"200","","93.54838709677419","93.54838709677419","603.6612903225806","603.6612903225806","black","no","xpyriment","legacy","legacy","0","201","NA","uniform","NA","NA","NA","1","undefined","1","0","61","61","61","0","61","61","61","NA","0","61","NA","NA","0","61","NA","61","0","61","NA","NA","NA","61","0","0","NA","NA","61","61","61","61","61","62","/","Thu Feb 15 13:18:44 2024","Executes Python code","yes","m21-ba-lexicalDecision.osexp","C:\Users\ekealey\Desktop","no","mono","no","18","no","white","no","yes","1080","legacy","61","61","C:/Users/ekealey/Desktop/subject-236.csv","xpyriment","Lentiform Loewenfeld","3.3.11","0","/","NA","NA","NA","NA","return","/","591","NA","NA","NA","NA","769327","591","2","legacy","1024","2","48000","-16","AB_m21","236","even","CW_S","CAMPAIGNER","2133","1027877","1026115","1018899","771625","NA","NA","NA","NA","NA","1026616","NA","NA","NA","1025613","NA","1025583","2297","1028077","NA","NA","NA","1026656","2133","2285","NA","NA","1027247","1027272","1025582","1026616","1026636","morph21_Oliver/Morris","58","37427","62","yes","1920","15"
"200","","92.06349206349206","92.06349206349206","602.2380952380952","602.2380952380952","black","no","xpyriment","legacy","legacy","0","203","NA","uniform","NA","NA","NA","0","undefined","0","0","62","62","62","0","62","62","62","NA","0","62","NA","NA","0","62","NA","62","0","62","NA","NA","NA","62","0","0","NA","NA","62","62","62","62","62","63","z","Thu Feb 15 13:18:44 2024","Executes Python code","yes","m21-ba-lexicalDecision.osexp","C:\Users\ekealey\Desktop","no","mono","no","18","no","white","no","yes","1080","legacy","62","62","C:/Users/ekealey/Desktop/subject-236.csv","xpyriment","Lentiform Loewenfeld","3.3.11","0","/","NA","NA","NA","NA","return","/","514","NA","NA","NA","NA","769327","514","2","legacy","1024","2","48000","-16","AB_m21","236","even","NW_S_COMP","ADOPTISH","2133","1032813","1029623","1031309","771625","NA","NA","NA","NA","NA","1030124","NA","NA","NA","1029122","NA","1029092","2297","1033013","NA","NA","NA","1030165","2133","2285","NA","NA","1030679","1030703","1029092","1030123","1030144","morph21_Oliver/Morris","58","37941","63","yes","1920","19"
"300","","92.1875","92.1875","602.25","602.25","black","no","xpyriment","legacy","legacy","0","208","NA","uniform","NA","NA","NA","1","undefined","1","0","63","63","63","0","63","63","63","NA","0","63","NA","NA","0","63","NA","63","0","63","NA","NA","NA","63","0","0","NA","NA","63","63","63","63","63","64","z","Thu Feb 15 13:18:44 2024","Executes Python code","yes","m21-ba-lexicalDecision.osexp","C:\Users\ekealey\Desktop","no","mono","no","18","no","white","no","yes","1080","legacy","63","63","C:/Users/ekealey/Desktop/subject-236.csv","xpyriment","Lentiform Loewenfeld","3.3.11","0","z","NA","NA","NA","NA","return","z","603","NA","NA","NA","NA","769327","603","2","legacy","1024","2","48000","-16","AB_m21","236","even","FILL_NW","DULKS","2133","1036348","1034575","1031309","771625","NA","NA","NA","NA","NA","1035075","NA","NA","NA","1034075","NA","1034047","2297","1036648","NA","NA","NA","1035116","2133","2285","NA","NA","1035720","1035743","1034047","1035075","1035096","morph21_Oliver/Morris","59","38544","64","yes","1920","18"
"200","","92.3076923076923","92.3076923076923","603.7076923076924","603.7076923076924","black","no","xpyriment","legacy","legacy","0","203","NA","uniform","NA","NA","NA","1","undefined","1","0","64","64","64","0","64","64","64","NA","0","64","NA","NA","0","64","NA","64","0","64","NA","NA","NA","64","0","0","NA","NA","64","64","64","64","64","65","z","Thu Feb 15 13:18:44 2024","Executes Python code","yes","m21-ba-lexicalDecision.osexp","C:\Users\ekealey\Desktop","no","mono","no","18","no","white","no","yes","1080","legacy","64","64","C:/Users/ekealey/Desktop/subject-236.csv","xpyriment","Lentiform Loewenfeld","3.3.11","0","z","NA","NA","NA","NA","return","z","697","NA","NA","NA","NA","769327","697","2","legacy","1024","2","48000","-16","AB_m21","236","even","NW_S_COMP","DUMBIDY","2133","1040084","1038216","1031309","771625","NA","NA","NA","NA","NA","1038718","NA","NA","NA","1037716","NA","1037691","2297","1040284","NA","NA","NA","1038758","2133","2285","NA","NA","1039456","1039481","1037691","1038718","1038738","morph21_Oliver/Morris","60","39241","65","yes","1920","12"
"250","","90.9090909090909","90.9090909090909","606","606","black","no","xpyriment","legacy","legacy","0","202","NA","uniform","NA","NA","NA","0","undefined","0","0","65","65","65","0","65","65","65","NA","0","65","NA","NA","0","65","NA","65","0","65","NA","NA","NA","65","0","0","NA","NA","65","65","65","65","65","66","/","Thu Feb 15 13:18:44 2024","Executes Python code","yes","m21-ba-lexicalDecision.osexp","C:\Users\ekealey\Desktop","no","mono","no","18","no","white","no","yes","1080","legacy","65","65","C:/Users/ekealey/Desktop/subject-236.csv","xpyriment","Lentiform Loewenfeld","3.3.11","0","z","NA","NA","NA","NA","return","z","755","NA","NA","NA","NA","769327","755","2","legacy","1024","2","48000","-16","AB_m21","236","even","CW_L","DEAFNESS","2133","1045257","1041831","1043754","771625","NA","NA","NA","NA","NA","1042331","NA","NA","NA","1041330","NA","1041300","2297","1045507","NA","NA","NA","1042372","2133","2285","NA","NA","1043128","1043151","1041300","1042331","1042352","morph21_Oliver/Morris","60","39996","66","yes","1920","39"
"350","","91.04477611940298","91.04477611940298","605.776119402985","605.776119402985","black","no","xpyriment","legacy","legacy","0","202","NA","uniform","NA","NA","NA","1","undefined","1","0","66","66","66","0","66","66","66","NA","0","66","NA","NA","0","66","NA","66","0","66","NA","NA","NA","66","0","0","NA","NA","66","66","66","66","66","67","/","Thu Feb 15 13:18:44 2024","Executes Python code","yes","m21-ba-lexicalDecision.osexp","C:\Users\ekealey\Desktop","no","mono","no","18","no","white","no","yes","1080","legacy","66","66","C:/Users/ekealey/Desktop/subject-236.csv","xpyriment","Lentiform Loewenfeld","3.3.11","0","/","NA","NA","NA","NA","return","/","591","NA","NA","NA","NA","769327","591","2","legacy","1024","2","48000","-16","AB_m21","236","even","CW_L","JUMPING","2133","1048818","1047058","1043754","771625","NA","NA","NA","NA","NA","1047559","NA","NA","NA","1046558","NA","1046525","2297","1049168","NA","NA","NA","1047600","2133","2285","NA","NA","1048192","1048215","1046525","1047559","1047580","morph21_Oliver/Morris","61","40587","67","yes","1920","30"
"200","","91.17647058823529","91.17647058823529","605.2941176470588","605.2941176470588","black","no","xpyriment","legacy","legacy","0","204","NA","uniform","NA","NA","NA","1","undefined","1","0","67","67","67","0","67","67","67","NA","0","67","NA","NA","0","67","NA","67","0","67","NA","NA","NA","67","0","0","NA","NA","67","67","67","67","67","68","z","Thu Feb 15 13:18:44 2024","Executes Python code","yes","m21-ba-lexicalDecision.osexp","C:\Users\ekealey\Desktop","no","mono","no","18","no","white","no","yes","1080","legacy","67","67","C:/Users/ekealey/Desktop/subject-236.csv","xpyriment","Lentiform Loewenfeld","3.3.11","0","z","NA","NA","NA","NA","return","z","573","NA","NA","NA","NA","769327","573","2","legacy","1024","2","48000","-16","AB_m21","236","even","NW_L_COMP","FLIPODY","2133","1052443","1050702","1043754","771625","NA","NA","NA","NA","NA","1051202","NA","NA","NA","1050202","NA","1050170","2297","1052644","NA","NA","NA","1051242","2133","2285","NA","NA","1051816","1051840","1050170","1051202","1051222","morph21_Oliver/Morris","62","41160","68","yes","1920","16"
"250","","91.30434782608695","91.30434782608695","604.6521739130435","604.6521739130435","black","no","xpyriment","legacy","legacy","0","206","NA","uniform","NA","NA","NA","1","undefined","1","0","68","68","68","0","68","68","68","NA","0","68","NA","NA","0","68","NA","68","0","68","NA","NA","NA","68","0","0","NA","NA","68","68","68","68","68","69","z","Thu Feb 15 13:18:44 2024","Executes Python code","yes","m21-ba-lexicalDecision.osexp","C:\Users\ekealey\Desktop","no","mono","no","18","no","white","no","yes","1080","legacy","68","68","C:/Users/ekealey/Desktop/subject-236.csv","xpyriment","Lentiform Loewenfeld","3.3.11","0","z","NA","NA","NA","NA","return","z","561","NA","NA","NA","NA","769327","561","2","legacy","1024","2","48000","-16","AB_m21","236","even","NW_L_SIMP"," DRESSORY","2133","1057420","1054185","1055917","771625","NA","NA","NA","NA","NA","1054686","NA","NA","NA","1053684","NA","1053654","2297","1057670","NA","NA","NA","1054726","2133","2285","NA","NA","1055288","1055312","1053654","1054686","1054706","morph21_Oliver/Morris","63","41721","69","yes","1920","21"
"400","","91.42857142857143","91.42857142857143","602.3857142857142","602.3857142857142","black","no","xpyriment","legacy","legacy","0","202","NA","uniform","NA","NA","NA","1","undefined","1","0","69","69","69","0","69","69","69","NA","0","69","NA","NA","0","69","NA","69","0","69","NA","NA","NA","69","0","0","NA","NA","69","69","69","69","69","70","/","Thu Feb 15 13:18:44 2024","Executes Python code","yes","m21-ba-lexicalDecision.osexp","C:\Users\ekealey\Desktop","no","mono","no","18","no","white","no","yes","1080","legacy","69","69","C:/Users/ekealey/Desktop/subject-236.csv","xpyriment","Lentiform Loewenfeld","3.3.11","0","/","NA","NA","NA","NA","return","/","446","NA","NA","NA","NA","769327","446","2","legacy","1024","2","48000","-16","AB_m21","236","even","CW_L","LOCKER","2133","1060852","1059236","1055917","771625","NA","NA","NA","NA","NA","1059737","NA","NA","NA","1058735","NA","1058702","2297","1061252","NA","NA","NA","1059777","2133","2285","NA","NA","1060224","1060249","1058702","1059737","1059757","morph21_Oliver/Morris","64","42167","70","yes","1920","8"
"400","","91.54929577464789","91.54929577464789","600.7464788732394","600.7464788732394","black","no","xpyriment","legacy","legacy","0","207","NA","uniform","NA","NA","NA","1","undefined","1","0","70","70","70","0","70","70","70","NA","0","70","NA","NA","0","70","NA","70","0","70","NA","NA","NA","70","0","0","NA","NA","70","70","70","70","70","71","/","Thu Feb 15 13:18:44 2024","Executes Python code","yes","m21-ba-lexicalDecision.osexp","C:\Users\ekealey\Desktop","no","mono","no","18","no","white","no","yes","1080","legacy","70","70","C:/Users/ekealey/Desktop/subject-236.csv","xpyriment","Lentiform Loewenfeld","3.3.11","0","/","NA","NA","NA","NA","return","/","486","NA","NA","NA","NA","769327","486","2","legacy","1024","2","48000","-16","AB_m21","236","even","FILL_W","EAT","2133","1064467","1062812","1055917","771625","NA","NA","NA","NA","NA","1063313","NA","NA","NA","1062309","NA","1062284","2297","1064867","NA","NA","NA","1063353","2133","2285","NA","NA","1063840","1063864","1062284","1063313","1063333","morph21_Oliver/Morris","65","42653","71","yes","1920","25"
"200","","91.66666666666667","91.66666666666667","599.7083333333334","599.7083333333334","black","no","xpyriment","legacy","legacy","0","206","NA","uniform","NA","NA","NA","1","undefined","1","0","71","71","71","0","71","71","71","NA","0","71","NA","NA","0","71","NA","71","0","71","NA","NA","NA","71","0","0","NA","NA","71","71","71","71","71","72","z","Thu Feb 15 13:18:44 2024","Executes Python code","yes","m21-ba-lexicalDecision.osexp","C:\Users\ekealey\Desktop","no","mono","no","18","no","white","no","yes","1080","legacy","71","71","C:/Users/ekealey/Desktop/subject-236.csv","xpyriment","Lentiform Loewenfeld","3.3.11","0","z","NA","NA","NA","NA","return","z","526","NA","NA","NA","NA","769327","526","2","legacy","1024","2","48000","-16","AB_m21","236","even","NW_L_SIMP","TOWERLY","2133","1069620","1066419","1068117","771625","NA","NA","NA","NA","NA","1066920","NA","NA","NA","1065915","NA","1065886","2297","1069820","NA","NA","NA","1066961","2133","2285","NA","NA","1067488","1067512","1065886","1066920","1066940","morph21_Oliver/Morris","66","43179","72","yes","1920","15"
"200","","91.78082191780823","91.78082191780823","598.6849315068494","598.6849315068494","black","no","xpyriment","legacy","legacy","0","207","NA","uniform","NA","NA","NA","1","undefined","1","0","72","72","72","0","72","72","72","NA","0","72","NA","NA","0","72","NA","72","0","72","NA","NA","NA","72","0","0","NA","NA","72","72","72","72","72","73","/","Thu Feb 15 13:18:44 2024","Executes Python code","yes","m21-ba-lexicalDecision.osexp","C:\Users\ekealey\Desktop","no","mono","no","18","no","white","no","yes","1080","legacy","72","72","C:/Users/ekealey/Desktop/subject-236.csv","xpyriment","Lentiform Loewenfeld","3.3.11","0","/","NA","NA","NA","NA","return","/","525","NA","NA","NA","NA","769327","525","2","legacy","1024","2","48000","-16","AB_m21","236","even","FILL_W","STALK","2133","1073060","1071365","1068117","771625","NA","NA","NA","NA","NA","1071865","NA","NA","NA","1070864","NA","1070835","2297","1073260","NA","NA","NA","1071906","2133","2285","NA","NA","1072432","1072456","1070835","1071865","1071886","morph21_Oliver/Morris","67","43704","73","yes","1920","27"
"350","","91.89189189189189","91.89189189189189","595.6351351351351","595.6351351351351","black","no","xpyriment","legacy","legacy","0","207","NA","uniform","NA","NA","NA","1","undefined","1","0","73","73","73","0","73","73","73","NA","0","73","NA","NA","0","73","NA","73","0","73","NA","NA","NA","73","0","0","NA","NA","73","73","73","73","73","74","/","Thu Feb 15 13:18:44 2024","Executes Python code","yes","m21-ba-lexicalDecision.osexp","C:\Users\ekealey\Desktop","no","mono","no","18","no","white","no","yes","1080","legacy","73","73","C:/Users/ekealey/Desktop/subject-236.csv","xpyriment","Lentiform Loewenfeld","3.3.11","0","/","NA","NA","NA","NA","return","/","373","NA","NA","NA","NA","769327","373","2","legacy","1024","2","48000","-16","AB_m21","236","even","FILL_W","LIFT","2133","1076371","1074830","1068117","771625","NA","NA","NA","NA","NA","1075330","NA","NA","NA","1074330","NA","1074301","2297","1076721","NA","NA","NA","1075370","2133","2285","NA","NA","1075744","1075768","1074301","1075330","1075350","morph21_Oliver/Morris","68","44077","74","yes","1920","39"
"250","","92","92","593.6533333333333","593.6533333333333","black","no","xpyriment","legacy","legacy","0","202","NA","uniform","NA","NA","NA","undefined","undefined","1","0","74","74","74","0","74","74","74","NA","0","74","NA","NA","0","74","NA","74","0","74","NA","NA","NA","74","0","0","NA","NA","74","74","74","74","74","75","/","Thu Feb 15 13:18:44 2024","Executes Python code","yes","m21-ba-lexicalDecision.osexp","C:\Users\ekealey\Desktop","no","mono","no","18","no","white","no","yes","1080","legacy","74","74","C:/Users/ekealey/Desktop/subject-236.csv","xpyriment","Lentiform Loewenfeld","3.3.11","0","space","space","NA","NA","NA","return","/","15578","15578","NA","NA","NA","769327","447","2","legacy","1024","2","48000","-16","AB_m21","236","even","CW_L","CREAMY","2133","1081390","1078266","1079885","771625","1081645","NA","NA","NA","NA","1078766","NA","NA","NA","1077766","NA","1077736","2297","1097224","NA","NA","NA","1078807","2133","2285","NA","NA","1079255","1079282","1077736","1078766","1078787","morph21_Oliver/Morris","69","44524","75","yes","1920","49"
"300","","92.10526315789474","92.10526315789474","599.3684210526316","599.3684210526316","black","no","xpyriment","legacy","legacy","0","203","NA","uniform","NA","NA","NA","1","undefined","1","0","75","75","75","0","75","75","75","NA","0","75","NA","NA","0","75","NA","75","0","75","NA","NA","NA","75","0","0","NA","NA","75","75","75","75","75","76","z","Thu Feb 15 13:18:44 2024","Executes Python code","yes","m21-ba-lexicalDecision.osexp","C:\Users\ekealey\Desktop","no","mono","no","18","no","white","no","yes","1080","legacy","75","75","C:/Users/ekealey/Desktop/subject-236.csv","xpyriment","Lentiform Loewenfeld","3.3.11","0","z","space","NA","NA","NA","return","z","1028","15578","NA","NA","NA","769327","1028","2","legacy","1024","2","48000","-16","AB_m21","236","even","NW_S_COMP","CURTIDY","2133","1101011","1098814","1079885","771625","1081645","NA","NA","NA","NA","1099314","NA","NA","NA","1098313","NA","1098284","2297","1101312","NA","NA","NA","1099355","2133","2285","NA","NA","1100384","1100407","1098283","1099314","1099335","morph21_Oliver/Morris","70","45552","76","yes","1920","11"
"300","","90.9090909090909","90.9090909090909","598.9480519480519","598.9480519480519","black","no","xpyriment","legacy","legacy","0","208","NA","uniform","NA","NA","NA","0","undefined","0","0","76","76","76","0","76","76","76","NA","0","76","NA","NA","0","76","NA","76","0","76","NA","NA","NA","76","0","0","NA","NA","76","76","76","76","76","77","z","Thu Feb 15 13:18:44 2024","Executes Python code","yes","m21-ba-lexicalDecision.osexp","C:\Users\ekealey\Desktop","no","mono","no","18","no","white","no","yes","1080","legacy","76","76","C:/Users/ekealey/Desktop/subject-236.csv","xpyriment","Lentiform Loewenfeld","3.3.11","0","/","space","NA","NA","NA","return","/","567","15578","NA","NA","NA","769327","567","2","legacy","1024","2","48000","-16","AB_m21","236","even","FILL_NW","DASK","2133","1104667","1102930","1079885","771625","1081645","NA","NA","NA","NA","1103430","NA","NA","NA","1102428","NA","1102401","2297","1104967","NA","NA","NA","1103471","2133","2285","NA","NA","1104039","1104064","1102401","1103430","1103450","morph21_Oliver/Morris","70","46119","77","yes","1920","12"
"200","","91.02564102564102","91.02564102564102","598.0128205128206","598.0128205128206","black","no","xpyriment","legacy","legacy","0","204","NA","uniform","NA","NA","NA","1","undefined","1","0","77","77","77","0","77","77","77","NA","0","77","NA","NA","0","77","NA","77","0","77","NA","NA","NA","77","0","0","NA","NA","77","77","77","77","77","78","z","Thu Feb 15 13:18:44 2024","Executes Python code","yes","m21-ba-lexicalDecision.osexp","C:\Users\ekealey\Desktop","no","mono","no","18","no","white","no","yes","1080","legacy","77","77","C:/Users/ekealey/Desktop/subject-236.csv","xpyriment","Lentiform Loewenfeld","3.3.11","0","z","space","NA","NA","NA","return","z","526","15578","NA","NA","NA","769327","526","2","legacy","1024","2","48000","-16","AB_m21","236","even","NW_L_COMP","GASFIL","2133","1109748","1106546","1108244","771625","1081645","NA","NA","NA","NA","1107048","NA","NA","NA","1106044","NA","1106019","2297","1109948","NA","NA","NA","1107089","2133","2285","NA","NA","1107615","1107639","1106019","1107048","1107068","morph21_Oliver/Morris","71","46645","78","yes","1920","6"
"200","","91.13924050632912","91.13924050632912","595.9873417721519","595.9873417721519","black","no","xpyriment","legacy","legacy","0","207","NA","uniform","NA","NA","NA","1","undefined","1","0","78","78","78","0","78","78","78","NA","0","78","NA","NA","0","78","NA","78","0","78","NA","NA","NA","78","0","0","NA","NA","78","78","78","78","78","79","/","Thu Feb 15 13:18:44 2024","Executes Python code","yes","m21-ba-lexicalDecision.osexp","C:\Users\ekealey\Desktop","no","mono","no","18","no","white","no","yes","1080","legacy","78","78","C:/Users/ekealey/Desktop/subject-236.csv","xpyriment","Lentiform Loewenfeld","3.3.11","0","/","space","NA","NA","NA","return","/","438","15578","NA","NA","NA","769327","438","2","legacy","1024","2","48000","-16","AB_m21","236","even","FILL_W","FLESH","2133","1113116","1111507","1108244","771625","1081645","NA","NA","NA","NA","1112009","NA","NA","NA","1111006","NA","1110983","2297","1113316","NA","NA","NA","1112049","2133","2285","NA","NA","1112488","1112513","1110983","1112008","1112029","morph21_Oliver/Morris","72","47083","79","yes","1920","32"
"300","","91.25","91.25","595.3625","595.3625","black","no","xpyriment","legacy","legacy","0","206","NA","uniform","NA","NA","NA","1","undefined","1","0","79","79","79","0","79","79","79","NA","0","79","NA","NA","0","79","NA","79","0","79","NA","NA","NA","79","0","0","NA","NA","79","79","79","79","79","80","z","Thu Feb 15 13:18:44 2024","Executes Python code","yes","m21-ba-lexicalDecision.osexp","C:\Users\ekealey\Desktop","no","mono","no","18","no","white","no","yes","1080","legacy","79","79","C:/Users/ekealey/Desktop/subject-236.csv","xpyriment","Lentiform Loewenfeld","3.3.11","0","z","space","NA","NA","NA","return","z","546","15578","NA","NA","NA","769327","546","2","legacy","1024","2","48000","-16","AB_m21","236","even","NW_L_SIMP","EARIST","2133","1116595","1114879","1108244","771625","1081645","NA","NA","NA","NA","1115380","NA","NA","NA","1114378","NA","1114352","2297","1116896","NA","NA","NA","1115421","2133","2285","NA","NA","1115968","1115992","1114352","1115380","1115401","morph21_Oliver/Morris","73","47629","80","yes","1920","12"
"400","","91.35802469135803","91.35802469135803","595.3333333333334","595.3333333333334","black","no","xpyriment","legacy","legacy","0","206","NA","uniform","NA","NA","NA","1","undefined","1","0","80","80","80","0","80","80","80","NA","0","80","NA","NA","0","80","NA","80","0","80","NA","NA","NA","80","0","0","NA","NA","80","80","80","80","80","81","z","Thu Feb 15 13:18:44 2024","Executes Python code","yes","m21-ba-lexicalDecision.osexp","C:\Users\ekealey\Desktop","no","mono","no","18","no","white","no","yes","1080","legacy","80","80","C:/Users/ekealey/Desktop/subject-236.csv","xpyriment","Lentiform Loewenfeld","3.3.11","0","z","space","NA","NA","NA","return","z","593","15578","NA","NA","NA","769327","593","2","legacy","1024","2","48000","-16","AB_m21","236","even","NW_L_SIMP","BOGARY","2133","1121731","1118465","1120227","771625","1081645","NA","NA","NA","NA","1118965","NA","NA","NA","1117965","NA","1117936","2297","1122131","NA","NA","NA","1119006","2133","2285","NA","NA","1119599","1119624","1117936","1118965","1118986","morph21_Oliver/Morris","74","48222","81","yes","1920","2"
"250","","91.46341463414635","91.46341463414635","595.7073170731708","595.7073170731708","black","no","xpyriment","legacy","legacy","0","208","NA","uniform","NA","NA","NA","1","undefined","1","0","81","81","81","0","81","81","81","NA","0","81","NA","NA","0","81","NA","81","0","81","NA","NA","NA","81","0","0","NA","NA","81","81","81","81","81","82","z","Thu Feb 15 13:18:44 2024","Executes Python code","yes","m21-ba-lexicalDecision.osexp","C:\Users\ekealey\Desktop","no","mono","no","18","no","white","no","yes","1080","legacy","81","81","C:/Users/ekealey/Desktop/subject-236.csv","xpyriment","Lentiform Loewenfeld","3.3.11","0","z","space","NA","NA","NA","return","z","626","15578","NA","NA","NA","769327","626","2","legacy","1024","2","48000","-16","AB_m21","236","even","FILL_NW","LOLDS","2133","1125524","1123728","1120227","771625","1081645","NA","NA","NA","NA","1124228","NA","NA","NA","1123228","NA","1123198","2297","1125774","NA","NA","NA","1124268","2133","2285","NA","NA","1124895","1124920","1123198","1124228","1124248","morph21_Oliver/Morris","75","48848","82","yes","1920","34"
"400","","90.36144578313252","90.36144578313252","594.3132530120482","594.3132530120482","black","no","xpyriment","legacy","legacy","0","207","NA","uniform","NA","NA","NA","0","undefined","0","0","82","82","82","0","82","82","82","NA","0","82","NA","NA","0","82","NA","82","0","82","NA","NA","NA","82","0","0","NA","NA","82","82","82","82","82","83","/","Thu Feb 15 13:18:44 2024","Executes Python code","yes","m21-ba-lexicalDecision.osexp","C:\Users\ekealey\Desktop","no","mono","no","18","no","white","no","yes","1080","legacy","82","82","C:/Users/ekealey/Desktop/subject-236.csv","xpyriment","Lentiform Loewenfeld","3.3.11","0","z","space","NA","NA","NA","return","z","480","15578","NA","NA","NA","769327","480","2","legacy","1024","2","48000","-16","AB_m21","236","even","FILL_W","LITHE","2133","1128962","1127312","1120227","771625","1081645","NA","NA","NA","NA","1127814","NA","NA","NA","1126811","NA","1126786","2297","1129363","NA","NA","NA","1127855","2133","2285","NA","NA","1128335","1128359","1126786","1127814","1127835","morph21_Oliver/Morris","75","49328","83","yes","1920","23"
"200","","90.47619047619048","90.47619047619048","593.6190476190476","593.6190476190476","black","no","xpyriment","legacy","legacy","0","207","NA","uniform","NA","NA","NA","1","undefined","1","0","83","83","83","0","83","83","83","NA","0","83","NA","NA","0","83","NA","83","0","83","NA","NA","NA","83","0","0","NA","NA","83","83","83","83","83","84","/","Thu Feb 15 13:18:44 2024","Executes Python code","yes","m21-ba-lexicalDecision.osexp","C:\Users\ekealey\Desktop","no","mono","no","18","no","white","no","yes","1080","legacy","83","83","C:/Users/ekealey/Desktop/subject-236.csv","xpyriment","Lentiform Loewenfeld","3.3.11","0","/","space","NA","NA","NA","return","/","536","15578","NA","NA","NA","769327","536","2","legacy","1024","2","48000","-16","AB_m21","236","even","FILL_W","BLEAK","2133","1134147","1130937","1132644","771625","1081645","NA","NA","NA","NA","1131437","NA","NA","NA","1130435","NA","1130408","2297","1134347","NA","NA","NA","1131478","2133","2285","NA","NA","1132015","1132039","1130408","1131437","1131458","morph21_Oliver/Morris","76","49864","84","yes","1920","5"
"250","","90.58823529411765","90.58823529411765","593.2941176470588","593.2941176470588","black","no","xpyriment","legacy","legacy","0","201","NA","uniform","NA","NA","NA","1","undefined","1","0","84","84","84","0","84","84","84","NA","0","84","NA","NA","0","84","NA","84","0","84","NA","NA","NA","84","0","0","NA","NA","84","84","84","84","84","85","/","Thu Feb 15 13:18:44 2024","Executes Python code","yes","m21-ba-lexicalDecision.osexp","C:\Users\ekealey\Desktop","no","mono","no","18","no","white","no","yes","1080","legacy","84","84","C:/Users/ekealey/Desktop/subject-236.csv","xpyriment","Lentiform Loewenfeld","3.3.11","0","/","space","NA","NA","NA","return","/","566","15578","NA","NA","NA","769327","566","2","legacy","1024","2","48000","-16","AB_m21","236","even","CW_S","NOTICEABLE","2133","1137642","1135907","1132644","771625","1081645","NA","NA","NA","NA","1136408","NA","NA","NA","1135407","NA","1135381","2297","1137893","NA","NA","NA","1136449","2133","2285","NA","NA","1137016","1137039","1135381","1136408","1136429","morph21_Oliver/Morris","77","50430","85","yes","1920","3"
"300","","89.53488372093024","89.53488372093024","593.4767441860465","593.4767441860465","black","no","xpyriment","legacy","legacy","0","206","NA","uniform","NA","NA","NA","0","undefined","0","0","85","85","85","0","85","85","85","NA","0","85","NA","NA","0","85","NA","85","0","85","NA","NA","NA","85","0","0","NA","NA","85","85","85","85","85","86","z","Thu Feb 15 13:18:44 2024","Executes Python code","yes","m21-ba-lexicalDecision.osexp","C:\Users\ekealey\Desktop","no","mono","no","18","no","white","no","yes","1080","legacy","85","85","C:/Users/ekealey/Desktop/subject-236.csv","xpyriment","Lentiform Loewenfeld","3.3.11","0","/","space","NA","NA","NA","return","/","609","15578","NA","NA","NA","769327","609","2","legacy","1024","2","48000","-16","AB_m21","236","even","NW_L_SIMP","TAXFUL","2133","1141260","1139479","1132644","771625","1081645","NA","NA","NA","NA","1139981","NA","NA","NA","1138977","NA","1138954","2297","1141560","NA","NA","NA","1140021","2133","2285","NA","NA","1140631","1140656","1138954","1139980","1140001","morph21_Oliver/Morris","77","51039","86","yes","1920","6"
"300","","89.65517241379311","89.65517241379311","595.8505747126437","595.8505747126437","black","no","xpyriment","legacy","legacy","0","206","NA","uniform","NA","NA","NA","1","undefined","1","0","86","86","86","0","86","86","86","NA","0","86","NA","NA","0","86","NA","86","0","86","NA","NA","NA","86","0","0","NA","NA","86","86","86","86","86","87","z","Thu Feb 15 13:18:44 2024","Executes Python code","yes","m21-ba-lexicalDecision.osexp","C:\Users\ekealey\Desktop","no","mono","no","18","no","white","no","yes","1080","legacy","86","86","C:/Users/ekealey/Desktop/subject-236.csv","xpyriment","Lentiform Loewenfeld","3.3.11","0","z","space","NA","NA","NA","return","z","800","15578","NA","NA","NA","769327","800","2","legacy","1024","2","48000","-16","AB_m21","236","even","NW_L_SIMP","BEANISH","2133","1146587","1143114","1145084","771625","1081645","NA","NA","NA","NA","1143615","NA","NA","NA","1142612","NA","1142587","2297","1146887","NA","NA","NA","1143655","2133","2285","NA","NA","1144455","1144481","1142587","1143615","1143635","morph21_Oliver/Morris","78","51839","87","yes","1920","8"
"200","","89.77272727272727","89.77272727272727","596.9659090909091","596.9659090909091","black","no","xpyriment","legacy","legacy","0","203","NA","uniform","NA","NA","NA","1","undefined","1","0","87","87","87","0","87","87","87","NA","0","87","NA","NA","0","87","NA","87","0","87","NA","NA","NA","87","0","0","NA","NA","87","87","87","87","87","88","z","Thu Feb 15 13:18:44 2024","Executes Python code","yes","m21-ba-lexicalDecision.osexp","C:\Users\ekealey\Desktop","no","mono","no","18","no","white","no","yes","1080","legacy","87","87","C:/Users/ekealey/Desktop/subject-236.csv","xpyriment","Lentiform Loewenfeld","3.3.11","0","z","space","NA","NA","NA","return","z","694","15578","NA","NA","NA","769327","694","2","legacy","1024","2","48000","-16","AB_m21","236","even","NW_S_COMP","MELTANGE","2133","1150318","1148451","1145084","771625","1081645","NA","NA","NA","NA","1148952","NA","NA","NA","1147950","NA","1147921","2297","1150518","NA","NA","NA","1148993","2133","2285","NA","NA","1149688","1149714","1147921","1148952","1148973","morph21_Oliver/Morris","79","52533","88","yes","1920","1"
"400","","89.88764044943821","89.88764044943821","596.8876404494382","596.8876404494382","black","no","xpyriment","legacy","legacy","0","208","NA","uniform","NA","NA","NA","1","undefined","1","0","88","88","88","0","88","88","88","NA","0","88","NA","NA","0","88","NA","88","0","88","NA","NA","NA","88","0","0","NA","NA","88","88","88","88","88","89","z","Thu Feb 15 13:18:44 2024","Executes Python code","yes","m21-ba-lexicalDecision.osexp","C:\Users\ekealey\Desktop","no","mono","no","18","no","white","no","yes","1080","legacy","88","88","C:/Users/ekealey/Desktop/subject-236.csv","xpyriment","Lentiform Loewenfeld","3.3.11","0","z","space","NA","NA","NA","return","z","590","15578","NA","NA","NA","769327","590","2","legacy","1024","2","48000","-16","AB_m21","236","even","FILL_NW","HEND","2133","1153867","1152107","1145084","771625","1081645","NA","NA","NA","NA","1152609","NA","NA","NA","1151605","NA","1151581","2297","1154267","NA","NA","NA","1152649","2133","2285","NA","NA","1153240","1153263","1151581","1152609","1152629","morph21_Oliver/Morris","80","53123","89","yes","1920","28"
"200","","90","90","595.6444444444444","595.6444444444444","black","no","xpyriment","legacy","legacy","0","202","NA","uniform","NA","NA","NA","1","undefined","1","0","89","89","89","0","89","89","89","NA","0","89","NA","NA","0","89","NA","89","0","89","NA","NA","NA","89","0","0","NA","NA","89","89","89","89","89","90","/","Thu Feb 15 13:18:44 2024","Executes Python code","yes","m21-ba-lexicalDecision.osexp","C:\Users\ekealey\Desktop","no","mono","no","18","no","white","no","yes","1080","legacy","89","89","C:/Users/ekealey/Desktop/subject-236.csv","xpyriment","Lentiform Loewenfeld","3.3.11","0","/","space","NA","NA","NA","return","/","485","15578","NA","NA","NA","769327","485","2","legacy","1024","2","48000","-16","AB_m21","236","even","CW_L","SHAMEFUL","2133","1158979","1155821","1157475","771625","1081645","NA","NA","NA","NA","1156321","NA","NA","NA","1155320","NA","1155293","2297","1159179","NA","NA","NA","1156362","2133","2285","NA","NA","1156848","1156871","1155293","1156321","1156342","morph21_Oliver/Morris","81","53608","90","yes","1920","19"
"200","","90.10989010989012","90.10989010989012","595.6593406593406","595.6593406593406","black","no","xpyriment","legacy","legacy","0","201","NA","uniform","NA","NA","NA","1","undefined","1","0","90","90","90","0","90","90","90","NA","0","90","NA","NA","0","90","NA","90","0","90","NA","NA","NA","90","0","0","NA","NA","90","90","90","90","90","91","/","Thu Feb 15 13:18:44 2024","Executes Python code","yes","m21-ba-lexicalDecision.osexp","C:\Users\ekealey\Desktop","no","mono","no","18","no","white","no","yes","1080","legacy","90","90","C:/Users/ekealey/Desktop/subject-236.csv","xpyriment","Lentiform Loewenfeld","3.3.11","0","/","space","NA","NA","NA","return","/","597","15578","NA","NA","NA","769327","597","2","legacy","1024","2","48000","-16","AB_m21","236","even","CW_S","ENJOYMENT","2133","1162483","1160716","1157475","771625","1081645","NA","NA","NA","NA","1161217","NA","NA","NA","1160213","NA","1160185","2297","1162683","NA","NA","NA","1161257","2133","2285","NA","NA","1161855","1161880","1160185","1161216","1161237","morph21_Oliver/Morris","82","54205","91","yes","1920","40"
