"ITI","_prepare","acc","accuracy","average_response_time","avg_rt","background","bidi","canvas_backend","clock_backend","color_backend","compensation","cond_trig","condtrigtime","coordinates","coroutines_cycles","coroutines_duration","coroutines_mean_cycle_duration","correct","correct_instructions_1","correct_new_keyboard_response_1","count_AB_m21","count_ITI","count_blank_screen","count_blink_screen","count_block1","count_break1","count_break2","count_break3_1","count_canvas","count_close_port","count_cond_trigger","count_correct_trigger","count_def_chain","count_end_screen","count_fixation_1","count_getting_started","count_inc_counter","count_instructions_1","count_logger","count_logscript","count_new_inline_script","count_new_inline_script_2","count_new_keyboard_response_1","count_open_port","count_reset_counter_prep","count_reset_counter_run","count_reset_counter_run_1","count_response_trigger_trial","count_responsescreen","count_sequence","count_target_present","count_word_trigger","counter","cresp","datetime","description","disable_garbage_collection","experiment_file","experiment_path","font_bold","font_family","font_italic","font_size","font_underline","foreground","form_clicks","fullscreen","height","keyboard_backend","live_row","live_row_block1","logfile","mouse_backend","opensesame_codename","opensesame_version","repeat_cycle","response","response_break1","response_break2","response_break3_1","response_end_screen","response_instructions_1","response_new_keyboard_response_1","response_time","response_time_break1","response_time_break2","response_time_break3_1","response_time_end_screen","response_time_instructions_1","response_time_new_keyboard_response_1","round_decimals","sampler_backend","sound_buf_size","sound_channels","sound_freq","sound_sample_size","start","subject_nr","subject_parity","targ_type","target","time_AB_m21","time_ITI","time_blank_screen","time_blink_screen","time_block1","time_break1","time_break2","time_break3_1","time_canvas","time_close_port","time_cond_trigger","time_correct_trigger","time_def_chain","time_end_screen","time_fixation_1","time_getting_started","time_inc_counter","time_instructions_1","time_logger","time_logscript","time_new_inline_script","time_new_inline_script_2","time_new_keyboard_response_1","time_open_port","time_reset_counter_prep","time_reset_counter_run","time_reset_counter_run_1","time_response_trigger_trial","time_responsescreen","time_sequence","time_target_present","time_word_trigger","title","total_correct","total_response_time","total_responses","uniform_coordinates","width","word_trig"
"400","","0","0","1200","1200","black","no","xpyriment","legacy","legacy","0","205","NA","uniform","NA","NA","NA","0","undefined","0","0","0","0","0","0","0","0","0","NA","0","0","NA","NA","0","0","NA","0","0","0","NA","NA","NA","0","0","0","NA","NA","0","0","0","0","0","1","z","Thu Nov 30 09:25:03 2023","Executes Python code","yes","m21-ba-lexicalDecision.osexp","C:\Users\ekealey\Desktop","no","mono","no","18","no","white","no","yes","1080","legacy","0","0","C:/Users/ekealey/Desktop/subject-230.csv","xpyriment","Lentiform Loewenfeld","3.3.11","0","None","NA","NA","NA","NA","space","None","1200","NA","NA","NA","NA","36317","1200","2","legacy","1024","2","48000","-16","AB_m21","230","even","NW_S_SIMP","MEDICALARY","1732","42529","40162","NA","38211","NA","NA","NA","NA","NA","40662","NA","NA","NA","39661","NA","39629","1893","42929","NA","NA","NA","40702","1732","1882","NA","NA","41902","41925","39629","40662","40682","morph21_Oliver/Morris","0","1200","1","yes","1920","18"
"250","","0","0","1200","1200","black","no","xpyriment","legacy","legacy","0","207","NA","uniform","NA","NA","NA","0","undefined","0","0","1","1","1","0","1","1","1","NA","0","1","NA","NA","0","1","NA","1","0","1","NA","NA","NA","1","0","0","NA","NA","1","1","1","1","1","2","/","Thu Nov 30 09:25:03 2023","Executes Python code","yes","m21-ba-lexicalDecision.osexp","C:\Users\ekealey\Desktop","no","mono","no","18","no","white","no","yes","1080","legacy","1","1","C:/Users/ekealey/Desktop/subject-230.csv","xpyriment","Lentiform Loewenfeld","3.3.11","0","None","NA","NA","NA","NA","space","None","1200","NA","NA","NA","NA","36317","1200","2","legacy","1024","2","48000","-16","AB_m21","230","even","FILL_W","SUIT","1732","46886","44518","NA","38211","NA","NA","NA","NA","NA","45018","NA","NA","NA","44016","NA","43984","1893","47136","NA","NA","NA","45059","1732","1882","NA","NA","46259","46283","43984","45018","45039","morph21_Oliver/Morris","0","2400","2","yes","1920","49"
"300","","0","0","1200","1200","black","no","xpyriment","legacy","legacy","0","205","NA","uniform","NA","NA","NA","0","undefined","0","0","2","2","2","0","2","2","2","NA","0","2","NA","NA","0","2","NA","2","0","2","NA","NA","NA","2","0","0","NA","NA","2","2","2","2","2","3","z","Thu Nov 30 09:25:03 2023","Executes Python code","yes","m21-ba-lexicalDecision.osexp","C:\Users\ekealey\Desktop","no","mono","no","18","no","white","no","yes","1080","legacy","2","2","C:/Users/ekealey/Desktop/subject-230.csv","xpyriment","Lentiform Loewenfeld","3.3.11","0","None","NA","NA","NA","NA","space","None","1200","NA","NA","NA","NA","36317","1200","2","legacy","1024","2","48000","-16","AB_m21","230","even","NW_S_SIMP","HEIRIC","1732","52585","48713","51081","38211","NA","NA","NA","NA","NA","49213","NA","NA","NA","48212","NA","48186","1893","52886","NA","NA","NA","49254","1732","1882","NA","NA","50454","50477","48186","49213","49234","morph21_Oliver/Morris","0","3600","3","yes","1920","3"
"300","","0","0","1200","1200","black","no","xpyriment","legacy","legacy","0","205","NA","uniform","NA","NA","NA","0","undefined","0","0","3","3","3","0","3","3","3","NA","0","3","NA","NA","0","3","NA","3","0","3","NA","NA","NA","3","0","0","NA","NA","3","3","3","3","3","4","z","Thu Nov 30 09:25:03 2023","Executes Python code","yes","m21-ba-lexicalDecision.osexp","C:\Users\ekealey\Desktop","no","mono","no","18","no","white","no","yes","1080","legacy","3","3","C:/Users/ekealey/Desktop/subject-230.csv","xpyriment","Lentiform Loewenfeld","3.3.11","0","None","NA","NA","NA","NA","space","None","1200","NA","NA","NA","NA","36317","1200","2","legacy","1024","2","48000","-16","AB_m21","230","even","NW_S_SIMP","WINKITY","1732","56838","54469","51081","38211","NA","NA","NA","NA","NA","54971","NA","NA","NA","53968","NA","53938","1893","57138","NA","NA","NA","55012","1732","1882","NA","NA","56212","56235","53938","54971","54991","morph21_Oliver/Morris","0","4800","4","yes","1920","21"
"350","","20","20","1067","1067","black","no","xpyriment","legacy","legacy","0","201","NA","uniform","NA","NA","NA","1","undefined","1","0","4","4","4","0","4","4","4","NA","0","4","NA","NA","0","4","NA","4","0","4","NA","NA","NA","4","0","0","NA","NA","4","4","4","4","4","5","/","Thu Nov 30 09:25:03 2023","Executes Python code","yes","m21-ba-lexicalDecision.osexp","C:\Users\ekealey\Desktop","no","mono","no","18","no","white","no","yes","1080","legacy","4","4","C:/Users/ekealey/Desktop/subject-230.csv","xpyriment","Lentiform Loewenfeld","3.3.11","0","/","NA","NA","NA","NA","space","/","535","NA","NA","NA","NA","36317","535","2","legacy","1024","2","48000","-16","AB_m21","230","even","CW_S","SINGER","1732","60389","58686","51081","38211","NA","NA","NA","NA","NA","59187","NA","NA","NA","58185","NA","58152","1893","60739","NA","NA","NA","59227","1732","1882","NA","NA","59763","59786","58152","59186","59207","morph21_Oliver/Morris","1","5335","5","yes","1920","17"
"200","","33.333333333333336","33.333333333333336","1006.5","1006.5","black","no","xpyriment","legacy","legacy","0","204","NA","uniform","NA","NA","NA","1","undefined","1","0","5","5","5","0","5","5","5","NA","0","5","NA","NA","0","5","NA","5","0","5","NA","NA","NA","5","0","0","NA","NA","5","5","5","5","5","6","z","Thu Nov 30 09:25:03 2023","Executes Python code","yes","m21-ba-lexicalDecision.osexp","C:\Users\ekealey\Desktop","no","mono","no","18","no","white","no","yes","1080","legacy","5","5","C:/Users/ekealey/Desktop/subject-230.csv","xpyriment","Lentiform Loewenfeld","3.3.11","0","z","NA","NA","NA","NA","space","z","704","NA","NA","NA","NA","36317","704","2","legacy","1024","2","48000","-16","AB_m21","230","even","NW_L_COMP","FLIPODY","1732","65660","62285","64157","38211","NA","NA","NA","NA","NA","62786","NA","NA","NA","61785","NA","61757","1893","65860","NA","NA","NA","62826","1732","1882","NA","NA","63530","63554","61757","62786","62806","morph21_Oliver/Morris","2","6039","6","yes","1920","16"
"400","","42.857142857142854","42.857142857142854","1004.8571428571429","1004.8571428571429","black","no","xpyriment","legacy","legacy","0","203","NA","uniform","NA","NA","NA","1","undefined","1","0","6","6","6","0","6","6","6","NA","0","6","NA","NA","0","6","NA","6","0","6","NA","NA","NA","6","0","0","NA","NA","6","6","6","6","6","7","z","Thu Nov 30 09:25:03 2023","Executes Python code","yes","m21-ba-lexicalDecision.osexp","C:\Users\ekealey\Desktop","no","mono","no","18","no","white","no","yes","1080","legacy","6","6","C:/Users/ekealey/Desktop/subject-230.csv","xpyriment","Lentiform Loewenfeld","3.3.11","0","z","NA","NA","NA","NA","space","z","995","NA","NA","NA","NA","36317","995","2","legacy","1024","2","48000","-16","AB_m21","230","even","NW_S_COMP","ALTARIG","1732","69623","67459","64157","38211","NA","NA","NA","NA","NA","67959","NA","NA","NA","66959","NA","66932","1893","70023","NA","NA","NA","67999","1732","1882","NA","NA","68994","69019","66932","67959","67979","morph21_Oliver/Morris","3","7034","7","yes","1920","7"
"350","","50","50","977.5","977.5","black","no","xpyriment","legacy","legacy","0","207","NA","uniform","NA","NA","NA","1","undefined","1","0","7","7","7","0","7","7","7","NA","0","7","NA","NA","0","7","NA","7","0","7","NA","NA","NA","7","0","0","NA","NA","7","7","7","7","7","8","/","Thu Nov 30 09:25:03 2023","Executes Python code","yes","m21-ba-lexicalDecision.osexp","C:\Users\ekealey\Desktop","no","mono","no","18","no","white","no","yes","1080","legacy","7","7","C:/Users/ekealey/Desktop/subject-230.csv","xpyriment","Lentiform Loewenfeld","3.3.11","0","/","NA","NA","NA","NA","space","/","786","NA","NA","NA","NA","36317","786","2","legacy","1024","2","48000","-16","AB_m21","230","even","FILL_W","GLOOM","1732","73536","71579","64157","38211","NA","NA","NA","NA","NA","72080","NA","NA","NA","71078","NA","71050","1893","73887","NA","NA","NA","72120","1732","1882","NA","NA","72907","72932","71050","72080","72100","morph21_Oliver/Morris","4","7820","8","yes","1920","14"
"200","","55.55555555555556","55.55555555555556","940.5555555555555","940.5555555555555","black","no","xpyriment","legacy","legacy","0","205","NA","uniform","NA","NA","NA","1","undefined","1","0","8","8","8","0","8","8","8","NA","0","8","NA","NA","0","8","NA","8","0","8","NA","NA","NA","8","0","0","NA","NA","8","8","8","8","8","9","z","Thu Nov 30 09:25:03 2023","Executes Python code","yes","m21-ba-lexicalDecision.osexp","C:\Users\ekealey\Desktop","no","mono","no","18","no","white","no","yes","1080","legacy","8","8","C:/Users/ekealey/Desktop/subject-230.csv","xpyriment","Lentiform Loewenfeld","3.3.11","0","z","NA","NA","NA","NA","space","z","645","NA","NA","NA","NA","36317","645","2","legacy","1024","2","48000","-16","AB_m21","230","even","NW_S_SIMP","THRILLANCE","1732","78775","75457","77272","38211","NA","NA","NA","NA","NA","75957","NA","NA","NA","74957","NA","74928","1893","78975","NA","NA","NA","75997","1732","1882","NA","NA","76642","76667","74928","75957","75977","morph21_Oliver/Morris","5","8465","9","yes","1920","22"
"300","","60","60","942.5","942.5","black","no","xpyriment","legacy","legacy","0","206","NA","uniform","NA","NA","NA","1","undefined","1","0","9","9","9","0","9","9","9","NA","0","9","NA","NA","0","9","NA","9","0","9","NA","NA","NA","9","0","0","NA","NA","9","9","9","9","9","10","z","Thu Nov 30 09:25:03 2023","Executes Python code","yes","m21-ba-lexicalDecision.osexp","C:\Users\ekealey\Desktop","no","mono","no","18","no","white","no","yes","1080","legacy","9","9","C:/Users/ekealey/Desktop/subject-230.csv","xpyriment","Lentiform Loewenfeld","3.3.11","0","z","NA","NA","NA","NA","space","z","960","NA","NA","NA","NA","36317","960","2","legacy","1024","2","48000","-16","AB_m21","230","even","NW_L_SIMP","PRAYANCE","1732","82709","80580","77272","38211","NA","NA","NA","NA","NA","81081","NA","NA","NA","80080","NA","80053","1893","83009","NA","NA","NA","81121","1732","1882","NA","NA","82082","82106","80053","81081","81101","morph21_Oliver/Morris","6","9425","10","yes","1920","1"
"350","","63.63636363636363","63.63636363636363","952.4545454545455","952.4545454545455","black","no","xpyriment","legacy","legacy","0","202","NA","uniform","NA","NA","NA","1","undefined","1","0","10","10","10","0","10","10","10","NA","0","10","NA","NA","0","10","NA","10","0","10","NA","NA","NA","10","0","0","NA","NA","10","10","10","10","10","11","/","Thu Nov 30 09:25:03 2023","Executes Python code","yes","m21-ba-lexicalDecision.osexp","C:\Users\ekealey\Desktop","no","mono","no","18","no","white","no","yes","1080","legacy","10","10","C:/Users/ekealey/Desktop/subject-230.csv","xpyriment","Lentiform Loewenfeld","3.3.11","0","/","NA","NA","NA","NA","space","/","1052","NA","NA","NA","NA","36317","1052","2","legacy","1024","2","48000","-16","AB_m21","230","even","CW_L","PARKING","1732","86789","84569","77272","38211","NA","NA","NA","NA","NA","85070","NA","NA","NA","84068","NA","84042","1893","87140","NA","NA","NA","85110","1732","1882","NA","NA","86163","86186","84042","85070","85090","morph21_Oliver/Morris","7","10477","11","yes","1920","25"
"400","","66.66666666666667","66.66666666666667","942.9166666666666","942.9166666666666","black","no","xpyriment","legacy","legacy","0","208","NA","uniform","NA","NA","NA","1","undefined","1","0","11","11","11","0","11","11","11","NA","0","11","NA","NA","0","11","NA","11","0","11","NA","NA","NA","11","0","0","NA","NA","11","11","11","11","11","12","z","Thu Nov 30 09:25:03 2023","Executes Python code","yes","m21-ba-lexicalDecision.osexp","C:\Users\ekealey\Desktop","no","mono","no","18","no","white","no","yes","1080","legacy","11","11","C:/Users/ekealey/Desktop/subject-230.csv","xpyriment","Lentiform Loewenfeld","3.3.11","0","z","NA","NA","NA","NA","space","z","838","NA","NA","NA","NA","36317","838","2","legacy","1024","2","48000","-16","AB_m21","230","even","FILL_NW","BALFS","1732","92211","88693","90704","38211","NA","NA","NA","NA","NA","89196","NA","NA","NA","88193","NA","88168","1893","92611","NA","NA","NA","89236","1732","1882","NA","NA","90074","90100","88167","89195","89216","morph21_Oliver/Morris","8","11315","12","yes","1920","2"
"250","","69.23076923076923","69.23076923076923","930.9230769230769","930.9230769230769","black","no","xpyriment","legacy","legacy","0","203","NA","uniform","NA","NA","NA","1","undefined","1","0","12","12","12","0","12","12","12","NA","0","12","NA","NA","0","12","NA","12","0","12","NA","NA","NA","12","0","0","NA","NA","12","12","12","12","12","13","z","Thu Nov 30 09:25:03 2023","Executes Python code","yes","m21-ba-lexicalDecision.osexp","C:\Users\ekealey\Desktop","no","mono","no","18","no","white","no","yes","1080","legacy","12","12","C:/Users/ekealey/Desktop/subject-230.csv","xpyriment","Lentiform Loewenfeld","3.3.11","0","z","NA","NA","NA","NA","space","z","787","NA","NA","NA","NA","36317","787","2","legacy","1024","2","48000","-16","AB_m21","230","even","NW_S_COMP","BRANCHEL","1732","96167","94209","90704","38211","NA","NA","NA","NA","NA","94709","NA","NA","NA","93709","NA","93683","1893","96417","NA","NA","NA","94750","1732","1882","NA","NA","95538","95562","93683","94709","94730","morph21_Oliver/Morris","9","12102","13","yes","1920","16"
"400","","71.42857142857143","71.42857142857143","909.4285714285714","909.4285714285714","black","no","xpyriment","legacy","legacy","0","202","NA","uniform","NA","NA","NA","1","undefined","1","0","13","13","13","0","13","13","13","NA","0","13","NA","NA","0","13","NA","13","0","13","NA","NA","NA","13","0","0","NA","NA","13","13","13","13","13","14","/","Thu Nov 30 09:25:03 2023","Executes Python code","yes","m21-ba-lexicalDecision.osexp","C:\Users\ekealey\Desktop","no","mono","no","18","no","white","no","yes","1080","legacy","13","13","C:/Users/ekealey/Desktop/subject-230.csv","xpyriment","Lentiform Loewenfeld","3.3.11","0","/","NA","NA","NA","NA","space","/","630","NA","NA","NA","NA","36317","630","2","legacy","1024","2","48000","-16","AB_m21","230","even","CW_L","WRONGLY","1732","99815","98015","90704","38211","NA","NA","NA","NA","NA","98515","NA","NA","NA","97515","NA","97488","1893","100215","NA","NA","NA","98556","1732","1882","NA","NA","99186","99211","97488","98515","98536","morph21_Oliver/Morris","10","12732","14","yes","1920","37"
"350","","66.66666666666667","66.66666666666667","893.8666666666667","893.8666666666667","black","no","xpyriment","legacy","legacy","0","206","NA","uniform","NA","NA","NA","0","undefined","0","0","14","14","14","0","14","14","14","NA","0","14","NA","NA","0","14","NA","14","0","14","NA","NA","NA","14","0","0","NA","NA","14","14","14","14","14","15","z","Thu Nov 30 09:25:03 2023","Executes Python code","yes","m21-ba-lexicalDecision.osexp","C:\Users\ekealey\Desktop","no","mono","no","18","no","white","no","yes","1080","legacy","14","14","C:/Users/ekealey/Desktop/subject-230.csv","xpyriment","Lentiform Loewenfeld","3.3.11","0","/","NA","NA","NA","NA","space","/","676","NA","NA","NA","NA","36317","676","2","legacy","1024","2","48000","-16","AB_m21","230","even","NW_L_SIMP","WIGISH","1732","105169","101817","103664","38211","NA","NA","NA","NA","NA","102318","NA","NA","NA","101317","NA","101289","1893","105519","NA","NA","NA","102358","1732","1882","NA","NA","103034","103059","101288","102317","102338","morph21_Oliver/Morris","10","13408","15","yes","1920","9"
"250","","62.5","62.5","913","913","black","no","xpyriment","legacy","legacy","0","207","NA","uniform","NA","NA","NA","0","undefined","0","0","15","15","15","0","15","15","15","NA","0","15","NA","NA","0","15","NA","15","0","15","NA","NA","NA","15","0","0","NA","NA","15","15","15","15","15","16","/","Thu Nov 30 09:25:03 2023","Executes Python code","yes","m21-ba-lexicalDecision.osexp","C:\Users\ekealey\Desktop","no","mono","no","18","no","white","no","yes","1080","legacy","15","15","C:/Users/ekealey/Desktop/subject-230.csv","xpyriment","Lentiform Loewenfeld","3.3.11","0","None","NA","NA","NA","NA","space","None","1200","NA","NA","NA","NA","36317","1200","2","legacy","1024","2","48000","-16","AB_m21","230","even","FILL_W","FIERCE","1732","109447","107077","103664","38211","NA","NA","NA","NA","NA","107577","NA","NA","NA","106576","NA","106544","1893","109697","NA","NA","NA","107618","1732","1882","NA","NA","108818","108843","106544","107577","107598","morph21_Oliver/Morris","10","14608","16","yes","1920","24"
"250","","58.8235294117647","58.8235294117647","929.8823529411765","929.8823529411765","black","no","xpyriment","legacy","legacy","0","204","NA","uniform","NA","NA","NA","0","undefined","0","0","16","16","16","0","16","16","16","NA","0","16","NA","NA","0","16","NA","16","0","16","NA","NA","NA","16","0","0","NA","NA","16","16","16","16","16","17","z","Thu Nov 30 09:25:03 2023","Executes Python code","yes","m21-ba-lexicalDecision.osexp","C:\Users\ekealey\Desktop","no","mono","no","18","no","white","no","yes","1080","legacy","16","16","C:/Users/ekealey/Desktop/subject-230.csv","xpyriment","Lentiform Loewenfeld","3.3.11","0","None","NA","NA","NA","NA","space","None","1200","NA","NA","NA","NA","36317","1200","2","legacy","1024","2","48000","-16","AB_m21","230","even","NW_L_COMP","MUDLA","1732","113626","111258","103664","38211","NA","NA","NA","NA","NA","111759","NA","NA","NA","110758","NA","110732","1893","113876","NA","NA","NA","111799","1732","1882","NA","NA","112999","113023","110732","111759","111779","morph21_Oliver/Morris","10","15808","17","yes","1920","12"
"400","","55.55555555555556","55.55555555555556","944.8888888888889","944.8888888888889","black","no","xpyriment","legacy","legacy","0","205","NA","uniform","NA","NA","NA","0","undefined","0","0","17","17","17","0","17","17","17","NA","0","17","NA","NA","0","17","NA","17","0","17","NA","NA","NA","17","0","0","NA","NA","17","17","17","17","17","18","z","Thu Nov 30 09:25:03 2023","Executes Python code","yes","m21-ba-lexicalDecision.osexp","C:\Users\ekealey\Desktop","no","mono","no","18","no","white","no","yes","1080","legacy","17","17","C:/Users/ekealey/Desktop/subject-230.csv","xpyriment","Lentiform Loewenfeld","3.3.11","0","None","NA","NA","NA","NA","space","None","1200","NA","NA","NA","NA","36317","1200","2","legacy","1024","2","48000","-16","AB_m21","230","even","NW_S_SIMP","ADVERTISELY","1732","119319","115444","117813","38211","NA","NA","NA","NA","NA","115945","NA","NA","NA","114942","NA","114914","1893","119719","NA","NA","NA","115986","1732","1882","NA","NA","117186","117209","114914","115945","115966","morph21_Oliver/Morris","10","17008","18","yes","1920","25"
"400","","57.89473684210526","57.89473684210526","938.421052631579","938.421052631579","black","no","xpyriment","legacy","legacy","0","204","NA","uniform","NA","NA","NA","1","undefined","1","0","18","18","18","0","18","18","18","NA","0","18","NA","NA","0","18","NA","18","0","18","NA","NA","NA","18","0","0","NA","NA","18","18","18","18","18","19","z","Thu Nov 30 09:25:03 2023","Executes Python code","yes","m21-ba-lexicalDecision.osexp","C:\Users\ekealey\Desktop","no","mono","no","18","no","white","no","yes","1080","legacy","18","18","C:/Users/ekealey/Desktop/subject-230.csv","xpyriment","Lentiform Loewenfeld","3.3.11","0","z","NA","NA","NA","NA","space","z","822","NA","NA","NA","NA","36317","822","2","legacy","1024","2","48000","-16","AB_m21","230","even","NW_L_COMP","PASSMANT","1732","123305","121309","117813","38211","NA","NA","NA","NA","NA","121809","NA","NA","NA","120809","NA","120780","1893","123706","NA","NA","NA","121851","1732","1882","NA","NA","122674","122701","120780","121809","121830","morph21_Oliver/Morris","11","17830","19","yes","1920","14"
"400","","60","60","925.35","925.35","black","no","xpyriment","legacy","legacy","0","202","NA","uniform","NA","NA","NA","1","undefined","1","0","19","19","19","0","19","19","19","NA","0","19","NA","NA","0","19","NA","19","0","19","NA","NA","NA","19","0","0","NA","NA","19","19","19","19","19","20","/","Thu Nov 30 09:25:03 2023","Executes Python code","yes","m21-ba-lexicalDecision.osexp","C:\Users\ekealey\Desktop","no","mono","no","18","no","white","no","yes","1080","legacy","19","19","C:/Users/ekealey/Desktop/subject-230.csv","xpyriment","Lentiform Loewenfeld","3.3.11","0","/","NA","NA","NA","NA","space","/","677","NA","NA","NA","NA","36317","677","2","legacy","1024","2","48000","-16","AB_m21","230","even","CW_L","QUIETLY","1732","127109","125264","117813","38211","NA","NA","NA","NA","NA","125765","NA","NA","NA","124761","NA","124737","1893","127509","NA","NA","NA","125805","1732","1882","NA","NA","126482","126506","124737","125764","125785","morph21_Oliver/Morris","12","18507","20","yes","1920","36"
"350","","61.904761904761905","61.904761904761905","930.5238095238095","930.5238095238095","black","no","xpyriment","legacy","legacy","0","206","NA","uniform","NA","NA","NA","1","undefined","1","0","20","20","20","0","20","20","20","NA","0","20","NA","NA","0","20","NA","20","0","20","NA","NA","NA","20","0","0","NA","NA","20","20","20","20","20","21","z","Thu Nov 30 09:25:03 2023","Executes Python code","yes","m21-ba-lexicalDecision.osexp","C:\Users\ekealey\Desktop","no","mono","no","18","no","white","no","yes","1080","legacy","20","20","C:/Users/ekealey/Desktop/subject-230.csv","xpyriment","Lentiform Loewenfeld","3.3.11","0","z","NA","NA","NA","NA","space","z","1034","NA","NA","NA","NA","36317","1034","2","legacy","1024","2","48000","-16","AB_m21","230","even","NW_L_SIMP","PICKENCE","1732","132814","129106","131309","38211","NA","NA","NA","NA","NA","129607","NA","NA","NA","128606","NA","128579","1893","133164","NA","NA","NA","129647","1732","1882","NA","NA","130682","130706","128579","129607","129627","morph21_Oliver/Morris","13","19541","21","yes","1920","5"
"350","","59.09090909090909","59.09090909090909","942.7727272727273","942.7727272727273","black","no","xpyriment","legacy","legacy","0","202","NA","uniform","NA","NA","NA","0","undefined","0","0","21","21","21","0","21","21","21","NA","0","21","NA","NA","0","21","NA","21","0","21","NA","NA","NA","21","0","0","NA","NA","21","21","21","21","21","22","/","Thu Nov 30 09:25:03 2023","Executes Python code","yes","m21-ba-lexicalDecision.osexp","C:\Users\ekealey\Desktop","no","mono","no","18","no","white","no","yes","1080","legacy","21","21","C:/Users/ekealey/Desktop/subject-230.csv","xpyriment","Lentiform Loewenfeld","3.3.11","0","None","NA","NA","NA","NA","space","None","1200","NA","NA","NA","NA","36317","1200","2","legacy","1024","2","48000","-16","AB_m21","230","even","CW_L","RENTER","1732","137125","134756","131309","38211","NA","NA","NA","NA","NA","135257","NA","NA","NA","134255","NA","134224","1893","137475","NA","NA","NA","135298","1732","1882","NA","NA","136498","136522","134224","135257","135278","morph21_Oliver/Morris","13","20741","22","yes","1920","9"
"350","","60.869565217391305","60.869565217391305","935.2608695652174","935.2608695652174","black","no","xpyriment","legacy","legacy","0","207","NA","uniform","NA","NA","NA","1","undefined","1","0","22","22","22","0","22","22","22","NA","0","22","NA","NA","0","22","NA","22","0","22","NA","NA","NA","22","0","0","NA","NA","22","22","22","22","22","23","/","Thu Nov 30 09:25:03 2023","Executes Python code","yes","m21-ba-lexicalDecision.osexp","C:\Users\ekealey\Desktop","no","mono","no","18","no","white","no","yes","1080","legacy","22","22","C:/Users/ekealey/Desktop/subject-230.csv","xpyriment","Lentiform Loewenfeld","3.3.11","0","/","NA","NA","NA","NA","space","/","770","NA","NA","NA","NA","36317","770","2","legacy","1024","2","48000","-16","AB_m21","230","even","FILL_W","WEIRD","1732","140956","139020","131309","38211","NA","NA","NA","NA","NA","139520","NA","NA","NA","138519","NA","138491","1893","141307","NA","NA","NA","139560","1732","1882","NA","NA","140330","140354","138491","139520","139540","morph21_Oliver/Morris","14","21511","23","yes","1920","2"
"400","","62.5","62.5","928.3333333333334","928.3333333333334","black","no","xpyriment","legacy","legacy","0","201","NA","uniform","NA","NA","NA","1","undefined","1","0","23","23","23","0","23","23","23","NA","0","23","NA","NA","0","23","NA","23","0","23","NA","NA","NA","23","0","0","NA","NA","23","23","23","23","23","24","/","Thu Nov 30 09:25:03 2023","Executes Python code","yes","m21-ba-lexicalDecision.osexp","C:\Users\ekealey\Desktop","no","mono","no","18","no","white","no","yes","1080","legacy","23","23","C:/Users/ekealey/Desktop/subject-230.csv","xpyriment","Lentiform Loewenfeld","3.3.11","0","/","NA","NA","NA","NA","space","/","769","NA","NA","NA","NA","36317","769","2","legacy","1024","2","48000","-16","AB_m21","230","even","CW_S","DIETARY","1732","146319","142875","144815","38211","NA","NA","NA","NA","NA","143377","NA","NA","NA","142375","NA","142347","1893","146719","NA","NA","NA","143417","1732","1882","NA","NA","144186","144210","142347","143377","143397","morph21_Oliver/Morris","15","22280","24","yes","1920","6"
"250","","64","64","916.92","916.92","black","no","xpyriment","legacy","legacy","0","207","NA","uniform","NA","NA","NA","1","undefined","1","0","24","24","24","0","24","24","24","NA","0","24","NA","NA","0","24","NA","24","0","24","NA","NA","NA","24","0","0","NA","NA","24","24","24","24","24","25","/","Thu Nov 30 09:25:03 2023","Executes Python code","yes","m21-ba-lexicalDecision.osexp","C:\Users\ekealey\Desktop","no","mono","no","18","no","white","no","yes","1080","legacy","24","24","C:/Users/ekealey/Desktop/subject-230.csv","xpyriment","Lentiform Loewenfeld","3.3.11","0","/","NA","NA","NA","NA","space","/","643","NA","NA","NA","NA","36317","643","2","legacy","1024","2","48000","-16","AB_m21","230","even","FILL_W","SPLICE","1732","150093","148282","144815","38211","NA","NA","NA","NA","NA","148782","NA","NA","NA","147782","NA","147750","1893","150343","NA","NA","NA","148823","1732","1882","NA","NA","149467","149490","147750","148782","148803","morph21_Oliver/Morris","16","22923","25","yes","1920","22"
"350","","61.53846153846154","61.53846153846154","927.8076923076923","927.8076923076923","black","no","xpyriment","legacy","legacy","0","206","NA","uniform","NA","NA","NA","0","undefined","0","0","25","25","25","0","25","25","25","NA","0","25","NA","NA","0","25","NA","25","0","25","NA","NA","NA","25","0","0","NA","NA","25","25","25","25","25","26","z","Thu Nov 30 09:25:03 2023","Executes Python code","yes","m21-ba-lexicalDecision.osexp","C:\Users\ekealey\Desktop","no","mono","no","18","no","white","no","yes","1080","legacy","25","25","C:/Users/ekealey/Desktop/subject-230.csv","xpyriment","Lentiform Loewenfeld","3.3.11","0","None","NA","NA","NA","NA","space","None","1200","NA","NA","NA","NA","36317","1200","2","legacy","1024","2","48000","-16","AB_m21","230","even","NW_L_SIMP","NUTLY","1732","154275","151903","144815","38211","NA","NA","NA","NA","NA","152405","NA","NA","NA","151401","NA","151375","1893","154625","NA","NA","NA","152445","1732","1882","NA","NA","153645","153671","151375","152404","152425","morph21_Oliver/Morris","16","24123","26","yes","1920","14"
"250","","62.96296296296296","62.96296296296296","916.3703703703703","916.3703703703703","black","no","xpyriment","legacy","legacy","0","207","NA","uniform","NA","NA","NA","1","undefined","1","0","26","26","26","0","26","26","26","NA","0","26","NA","NA","0","26","NA","26","0","26","NA","NA","NA","26","0","0","NA","NA","26","26","26","26","26","27","/","Thu Nov 30 09:25:03 2023","Executes Python code","yes","m21-ba-lexicalDecision.osexp","C:\Users\ekealey\Desktop","no","mono","no","18","no","white","no","yes","1080","legacy","26","26","C:/Users/ekealey/Desktop/subject-230.csv","xpyriment","Lentiform Loewenfeld","3.3.11","0","/","NA","NA","NA","NA","space","/","619","NA","NA","NA","NA","36317","619","2","legacy","1024","2","48000","-16","AB_m21","230","even","FILL_W","SHIP","1732","159461","156170","157957","38211","NA","NA","NA","NA","NA","156670","NA","NA","NA","155667","NA","155639","1893","159712","NA","NA","NA","156711","1732","1882","NA","NA","157330","157354","155639","156670","156691","morph21_Oliver/Morris","17","24742","27","yes","1920","37"
"200","","64.28571428571429","64.28571428571429","902.8214285714286","902.8214285714286","black","no","xpyriment","legacy","legacy","0","201","NA","uniform","NA","NA","NA","1","undefined","1","0","27","27","27","0","27","27","27","NA","0","27","NA","NA","0","27","NA","27","0","27","NA","NA","NA","27","0","0","NA","NA","27","27","27","27","27","28","/","Thu Nov 30 09:25:03 2023","Executes Python code","yes","m21-ba-lexicalDecision.osexp","C:\Users\ekealey\Desktop","no","mono","no","18","no","white","no","yes","1080","legacy","27","27","C:/Users/ekealey/Desktop/subject-230.csv","xpyriment","Lentiform Loewenfeld","3.3.11","0","/","NA","NA","NA","NA","space","/","537","NA","NA","NA","NA","36317","537","2","legacy","1024","2","48000","-16","AB_m21","230","even","CW_S","ENJOYMENT","1732","162990","161284","157957","38211","NA","NA","NA","NA","NA","161784","NA","NA","NA","160784","NA","160754","1893","163190","NA","NA","NA","161825","1732","1882","NA","NA","162362","162386","160754","161784","161805","morph21_Oliver/Morris","18","25279","28","yes","1920","40"
"350","","65.51724137931035","65.51724137931035","897.3793103448276","897.3793103448276","black","no","xpyriment","legacy","legacy","0","204","NA","uniform","NA","NA","NA","1","undefined","1","0","28","28","28","0","28","28","28","NA","0","28","NA","NA","0","28","NA","28","0","28","NA","NA","NA","28","0","0","NA","NA","28","28","28","28","28","29","z","Thu Nov 30 09:25:03 2023","Executes Python code","yes","m21-ba-lexicalDecision.osexp","C:\Users\ekealey\Desktop","no","mono","no","18","no","white","no","yes","1080","legacy","28","28","C:/Users/ekealey/Desktop/subject-230.csv","xpyriment","Lentiform Loewenfeld","3.3.11","0","z","NA","NA","NA","NA","space","z","745","NA","NA","NA","NA","36317","745","2","legacy","1024","2","48000","-16","AB_m21","230","even","NW_L_COMP","INKILM","1732","166654","164739","157957","38211","NA","NA","NA","NA","NA","165241","NA","NA","NA","164239","NA","164213","1893","167004","NA","NA","NA","165281","1732","1882","NA","NA","166027","166050","164213","165240","165261","morph21_Oliver/Morris","19","26024","29","yes","1920","8"
"400","","66.66666666666667","66.66666666666667","887.2333333333333","887.2333333333333","black","no","xpyriment","legacy","legacy","0","202","NA","uniform","NA","NA","NA","1","undefined","1","0","29","29","29","0","29","29","29","NA","0","29","NA","NA","0","29","NA","29","0","29","NA","NA","NA","29","0","0","NA","NA","29","29","29","29","29","30","/","Thu Nov 30 09:25:03 2023","Executes Python code","yes","m21-ba-lexicalDecision.osexp","C:\Users\ekealey\Desktop","no","mono","no","18","no","white","no","yes","1080","legacy","29","29","C:/Users/ekealey/Desktop/subject-230.csv","xpyriment","Lentiform Loewenfeld","3.3.11","0","/","NA","NA","NA","NA","space","/","593","NA","NA","NA","NA","36317","593","2","legacy","1024","2","48000","-16","AB_m21","230","even","CW_L","STYLISH","1732","171830","168562","170325","38211","NA","NA","NA","NA","NA","169064","NA","NA","NA","168062","NA","168036","1893","172230","NA","NA","NA","169104","1732","1882","NA","NA","169698","169722","168036","169064","169084","morph21_Oliver/Morris","20","26617","30","yes","1920","29"
"300","","67.74193548387096","67.74193548387096","888.9032258064516","888.9032258064516","black","no","xpyriment","legacy","legacy","0","204","NA","uniform","NA","NA","NA","1","undefined","1","0","30","30","30","0","30","30","30","NA","0","30","NA","NA","0","30","NA","30","0","30","NA","NA","NA","30","0","0","NA","NA","30","30","30","30","30","31","z","Thu Nov 30 09:25:03 2023","Executes Python code","yes","m21-ba-lexicalDecision.osexp","C:\Users\ekealey\Desktop","no","mono","no","18","no","white","no","yes","1080","legacy","30","30","C:/Users/ekealey/Desktop/subject-230.csv","xpyriment","Lentiform Loewenfeld","3.3.11","0","z","NA","NA","NA","NA","space","z","939","NA","NA","NA","NA","36317","939","2","legacy","1024","2","48000","-16","AB_m21","230","even","NW_L_COMP","EMPLOYNELS","1732","175894","173786","170325","38211","NA","NA","NA","NA","NA","174287","NA","NA","NA","173286","NA","173252","1893","176194","NA","NA","NA","174327","1732","1882","NA","NA","175266","175290","173252","174287","174307","morph21_Oliver/Morris","21","27556","31","yes","1920","21"
"250","","68.75","68.75","884","884","black","no","xpyriment","legacy","legacy","0","201","NA","uniform","NA","NA","NA","1","undefined","1","0","31","31","31","0","31","31","31","NA","0","31","NA","NA","0","31","NA","31","0","31","NA","NA","NA","31","0","0","NA","NA","31","31","31","31","31","32","/","Thu Nov 30 09:25:03 2023","Executes Python code","yes","m21-ba-lexicalDecision.osexp","C:\Users\ekealey\Desktop","no","mono","no","18","no","white","no","yes","1080","legacy","31","31","C:/Users/ekealey/Desktop/subject-230.csv","xpyriment","Lentiform Loewenfeld","3.3.11","0","/","NA","NA","NA","NA","space","/","732","NA","NA","NA","NA","36317","732","2","legacy","1024","2","48000","-16","AB_m21","230","even","CW_S","JAILER","1732","179716","177817","170325","38211","NA","NA","NA","NA","NA","178317","NA","NA","NA","177316","NA","177288","1893","179966","NA","NA","NA","178357","1732","1882","NA","NA","179090","179113","177288","178317","178337","morph21_Oliver/Morris","22","28288","32","yes","1920","13"
"250","","69.6969696969697","69.6969696969697","873.7272727272727","873.7272727272727","black","no","xpyriment","legacy","legacy","0","201","NA","uniform","NA","NA","NA","1","undefined","1","0","32","32","32","0","32","32","32","NA","0","32","NA","NA","0","32","NA","32","0","32","NA","NA","NA","32","0","0","NA","NA","32","32","32","32","32","33","/","Thu Nov 30 09:25:03 2023","Executes Python code","yes","m21-ba-lexicalDecision.osexp","C:\Users\ekealey\Desktop","no","mono","no","18","no","white","no","yes","1080","legacy","32","32","C:/Users/ekealey/Desktop/subject-230.csv","xpyriment","Lentiform Loewenfeld","3.3.11","0","/","NA","NA","NA","NA","space","/","545","NA","NA","NA","NA","36317","545","2","legacy","1024","2","48000","-16","AB_m21","230","even","CW_S","GRIMLY","1732","184765","181548","183261","38211","NA","NA","NA","NA","NA","182049","NA","NA","NA","181047","NA","181018","1893","185015","NA","NA","NA","182089","1732","1882","NA","NA","182634","182658","181018","182049","182069","morph21_Oliver/Morris","23","28833","33","yes","1920","31"
"400","","70.58823529411765","70.58823529411765","875.3529411764706","875.3529411764706","black","no","xpyriment","legacy","legacy","0","208","NA","uniform","NA","NA","NA","1","undefined","1","0","33","33","33","0","33","33","33","NA","0","33","NA","NA","0","33","NA","33","0","33","NA","NA","NA","33","0","0","NA","NA","33","33","33","33","33","34","z","Thu Nov 30 09:25:03 2023","Executes Python code","yes","m21-ba-lexicalDecision.osexp","C:\Users\ekealey\Desktop","no","mono","no","18","no","white","no","yes","1080","legacy","33","33","C:/Users/ekealey/Desktop/subject-230.csv","xpyriment","Lentiform Loewenfeld","3.3.11","0","z","NA","NA","NA","NA","space","z","929","NA","NA","NA","NA","36317","929","2","legacy","1024","2","48000","-16","AB_m21","230","even","FILL_NW","GIKE","1732","188686","186588","183261","38211","NA","NA","NA","NA","NA","187088","NA","NA","NA","186087","NA","186054","1893","189086","NA","NA","NA","187129","1732","1882","NA","NA","188058","188083","186054","187088","187109","morph21_Oliver/Morris","24","29762","34","yes","1920","24"
"250","","71.42857142857143","71.42857142857143","871.4571428571429","871.4571428571429","black","no","xpyriment","legacy","legacy","0","201","NA","uniform","NA","NA","NA","1","undefined","1","0","34","34","34","0","34","34","34","NA","0","34","NA","NA","0","34","NA","34","0","34","NA","NA","NA","34","0","0","NA","NA","34","34","34","34","34","35","/","Thu Nov 30 09:25:03 2023","Executes Python code","yes","m21-ba-lexicalDecision.osexp","C:\Users\ekealey\Desktop","no","mono","no","18","no","white","no","yes","1080","legacy","34","34","C:/Users/ekealey/Desktop/subject-230.csv","xpyriment","Lentiform Loewenfeld","3.3.11","0","/","NA","NA","NA","NA","space","/","739","NA","NA","NA","NA","36317","739","2","legacy","1024","2","48000","-16","AB_m21","230","even","CW_S","PLANNER","1732","192574","190663","183261","38211","NA","NA","NA","NA","NA","191166","NA","NA","NA","190161","NA","190137","1893","192825","NA","NA","NA","191206","1732","1882","NA","NA","191946","191970","190137","191166","191186","morph21_Oliver/Morris","25","30501","35","yes","1920","22"
"400","","72.22222222222223","72.22222222222223","871.9444444444445","871.9444444444445","black","no","xpyriment","legacy","legacy","0","208","NA","uniform","NA","NA","NA","1","undefined","1","0","35","35","35","0","35","35","35","NA","0","35","NA","NA","0","35","NA","35","0","35","NA","NA","NA","35","0","0","NA","NA","35","35","35","35","35","36","z","Thu Nov 30 09:25:03 2023","Executes Python code","yes","m21-ba-lexicalDecision.osexp","C:\Users\ekealey\Desktop","no","mono","no","18","no","white","no","yes","1080","legacy","35","35","C:/Users/ekealey/Desktop/subject-230.csv","xpyriment","Lentiform Loewenfeld","3.3.11","0","z","NA","NA","NA","NA","space","z","889","NA","NA","NA","NA","36317","889","2","legacy","1024","2","48000","-16","AB_m21","230","even","FILL_NW","VELT","1732","197970","194404","196464","38211","NA","NA","NA","NA","NA","194905","NA","NA","NA","193902","NA","193877","1893","198370","NA","NA","NA","194945","1732","1882","NA","NA","195834","195858","193877","194904","194925","morph21_Oliver/Morris","26","31390","36","yes","1920","46"
"350","","72.97297297297297","72.97297297297297","867","867","black","no","xpyriment","legacy","legacy","0","208","NA","uniform","NA","NA","NA","1","undefined","1","0","36","36","36","0","36","36","36","NA","0","36","NA","NA","0","36","NA","36","0","36","NA","NA","NA","36","0","0","NA","NA","36","36","36","36","36","37","z","Thu Nov 30 09:25:03 2023","Executes Python code","yes","m21-ba-lexicalDecision.osexp","C:\Users\ekealey\Desktop","no","mono","no","18","no","white","no","yes","1080","legacy","36","36","C:/Users/ekealey/Desktop/subject-230.csv","xpyriment","Lentiform Loewenfeld","3.3.11","0","z","NA","NA","NA","NA","space","z","689","NA","NA","NA","NA","36317","689","2","legacy","1024","2","48000","-16","AB_m21","230","even","FILL_NW","DASP","1732","201809","199948","196464","38211","NA","NA","NA","NA","NA","200449","NA","NA","NA","199448","NA","199416","1893","202159","NA","NA","NA","200489","1732","1882","NA","NA","201178","201204","199416","200449","200469","morph21_Oliver/Morris","27","32079","37","yes","1920","13"
"300","","73.6842105263158","73.6842105263158","861.8947368421053","861.8947368421053","black","no","xpyriment","legacy","legacy","0","202","NA","uniform","NA","NA","NA","1","undefined","1","0","37","37","37","0","37","37","37","NA","0","37","NA","NA","0","37","NA","37","0","37","NA","NA","NA","37","0","0","NA","NA","37","37","37","37","37","38","/","Thu Nov 30 09:25:03 2023","Executes Python code","yes","m21-ba-lexicalDecision.osexp","C:\Users\ekealey\Desktop","no","mono","no","18","no","white","no","yes","1080","legacy","37","37","C:/Users/ekealey/Desktop/subject-230.csv","xpyriment","Lentiform Loewenfeld","3.3.11","0","/","NA","NA","NA","NA","space","/","673","NA","NA","NA","NA","36317","673","2","legacy","1024","2","48000","-16","AB_m21","230","even","CW_L","COMPOSER","1732","205614","203772","196464","38211","NA","NA","NA","NA","NA","204273","NA","NA","NA","203271","NA","203245","1893","205914","NA","NA","NA","204313","1732","1882","NA","NA","204986","205011","203245","204273","204293","morph21_Oliver/Morris","28","32752","38","yes","1920","6"
"250","","74.35897435897436","74.35897435897436","856.8461538461538","856.8461538461538","black","no","xpyriment","legacy","legacy","0","207","NA","uniform","NA","NA","NA","1","undefined","1","0","38","38","38","0","38","38","38","NA","0","38","NA","NA","0","38","NA","38","0","38","NA","NA","NA","38","0","0","NA","NA","38","38","38","38","38","39","/","Thu Nov 30 09:25:03 2023","Executes Python code","yes","m21-ba-lexicalDecision.osexp","C:\Users\ekealey\Desktop","no","mono","no","18","no","white","no","yes","1080","legacy","38","38","C:/Users/ekealey/Desktop/subject-230.csv","xpyriment","Lentiform Loewenfeld","3.3.11","0","/","NA","NA","NA","NA","space","/","665","NA","NA","NA","NA","36317","665","2","legacy","1024","2","48000","-16","AB_m21","230","even","FILL_W","PREACH","1732","210807","207466","209303","38211","NA","NA","NA","NA","NA","207968","NA","NA","NA","206965","NA","206940","1893","211057","NA","NA","NA","208008","1732","1882","NA","NA","208674","208699","206940","207968","207988","morph21_Oliver/Morris","29","33417","39","yes","1920","7"
"300","","75","75","859.975","859.975","black","no","xpyriment","legacy","legacy","0","202","NA","uniform","NA","NA","NA","1","undefined","1","0","39","39","39","0","39","39","39","NA","0","39","NA","NA","0","39","NA","39","0","39","NA","NA","NA","39","0","0","NA","NA","39","39","39","39","39","40","/","Thu Nov 30 09:25:03 2023","Executes Python code","yes","m21-ba-lexicalDecision.osexp","C:\Users\ekealey\Desktop","no","mono","no","18","no","white","no","yes","1080","legacy","39","39","C:/Users/ekealey/Desktop/subject-230.csv","xpyriment","Lentiform Loewenfeld","3.3.11","0","/","NA","NA","NA","NA","space","/","982","NA","NA","NA","NA","36317","982","2","legacy","1024","2","48000","-16","AB_m21","230","even","CW_L","DAMPISH","1732","214767","212616","209303","38211","NA","NA","NA","NA","NA","213116","NA","NA","NA","212114","NA","212080","1893","215067","NA","NA","NA","213156","1732","1882","NA","NA","214139","214162","212080","213116","213136","morph21_Oliver/Morris","30","34399","40","yes","1920","28"
"350","","75.60975609756098","75.60975609756098","851.2439024390244","851.2439024390244","black","no","xpyriment","legacy","legacy","0","201","NA","uniform","NA","NA","NA","1","undefined","1","0","40","40","40","0","40","40","40","NA","0","40","NA","NA","0","40","NA","40","0","40","NA","NA","NA","40","0","0","NA","NA","40","40","40","40","40","41","/","Thu Nov 30 09:25:03 2023","Executes Python code","yes","m21-ba-lexicalDecision.osexp","C:\Users\ekealey\Desktop","no","mono","no","18","no","white","no","yes","1080","legacy","40","40","C:/Users/ekealey/Desktop/subject-230.csv","xpyriment","Lentiform Loewenfeld","3.3.11","0","/","NA","NA","NA","NA","space","/","502","NA","NA","NA","NA","36317","502","2","legacy","1024","2","48000","-16","AB_m21","230","even","CW_S","TEACHER","1732","218343","216669","209303","38211","NA","NA","NA","NA","NA","217170","NA","NA","NA","216168","NA","216143","1893","218693","NA","NA","NA","217211","1732","1882","NA","NA","217714","217740","216143","217170","217191","morph21_Oliver/Morris","31","34901","41","yes","1920","23"
"400","","76.19047619047619","76.19047619047619","847.7142857142857","847.7142857142857","black","no","xpyriment","legacy","legacy","0","205","NA","uniform","NA","NA","NA","1","undefined","1","0","41","41","41","0","41","41","41","NA","0","41","NA","NA","0","41","NA","41","0","41","NA","NA","NA","41","0","0","NA","NA","41","41","41","41","41","42","z","Thu Nov 30 09:25:03 2023","Executes Python code","yes","m21-ba-lexicalDecision.osexp","C:\Users\ekealey\Desktop","no","mono","no","18","no","white","no","yes","1080","legacy","41","41","C:/Users/ekealey/Desktop/subject-230.csv","xpyriment","Lentiform Loewenfeld","3.3.11","0","z","NA","NA","NA","NA","space","z","703","NA","NA","NA","NA","36317","703","2","legacy","1024","2","48000","-16","AB_m21","230","even","NW_S_SIMP","SCHEMENESS","1732","223620","220244","222117","38211","NA","NA","NA","NA","NA","220744","NA","NA","NA","219743","NA","219716","1893","224020","NA","NA","NA","220786","1732","1882","NA","NA","221490","221514","219716","220744","220765","morph21_Oliver/Morris","32","35604","42","yes","1920","15"
"350","","76.74418604651163","76.74418604651163","842.8139534883721","842.8139534883721","black","no","xpyriment","legacy","legacy","0","208","NA","uniform","NA","NA","NA","1","undefined","1","0","42","42","42","0","42","42","42","NA","0","42","NA","NA","0","42","NA","42","0","42","NA","NA","NA","42","0","0","NA","NA","42","42","42","42","42","43","z","Thu Nov 30 09:25:03 2023","Executes Python code","yes","m21-ba-lexicalDecision.osexp","C:\Users\ekealey\Desktop","no","mono","no","18","no","white","no","yes","1080","legacy","42","42","C:/Users/ekealey/Desktop/subject-230.csv","xpyriment","Lentiform Loewenfeld","3.3.11","0","z","NA","NA","NA","NA","space","z","637","NA","NA","NA","NA","36317","637","2","legacy","1024","2","48000","-16","AB_m21","230","even","FILL_NW","HEAS","1732","227381","225576","222117","38211","NA","NA","NA","NA","NA","226076","NA","NA","NA","225076","NA","225045","1893","227731","NA","NA","NA","226117","1732","1882","NA","NA","226754","226778","225045","226076","226097","morph21_Oliver/Morris","33","36241","43","yes","1920","26"
"400","","77.27272727272727","77.27272727272727","838.2272727272727","838.2272727272727","black","no","xpyriment","legacy","legacy","0","208","NA","uniform","NA","NA","NA","1","undefined","1","0","43","43","43","0","43","43","43","NA","0","43","NA","NA","0","43","NA","43","0","43","NA","NA","NA","43","0","0","NA","NA","43","43","43","43","43","44","z","Thu Nov 30 09:25:03 2023","Executes Python code","yes","m21-ba-lexicalDecision.osexp","C:\Users\ekealey\Desktop","no","mono","no","18","no","white","no","yes","1080","legacy","43","43","C:/Users/ekealey/Desktop/subject-230.csv","xpyriment","Lentiform Loewenfeld","3.3.11","0","z","NA","NA","NA","NA","space","z","641","NA","NA","NA","NA","36317","641","2","legacy","1024","2","48000","-16","AB_m21","230","even","FILL_NW","FROES","1732","231118","229307","222117","38211","NA","NA","NA","NA","NA","229808","NA","NA","NA","228806","NA","228779","1893","231518","NA","NA","NA","229848","1732","1882","NA","NA","230490","230514","228779","229808","229828","morph21_Oliver/Morris","34","36882","44","yes","1920","21"
"250","","77.77777777777777","77.77777777777777","835.3777777777777","835.3777777777777","black","no","xpyriment","legacy","legacy","0","201","NA","uniform","NA","NA","NA","1","undefined","1","0","44","44","44","0","44","44","44","NA","0","44","NA","NA","0","44","NA","44","0","44","NA","NA","NA","44","0","0","NA","NA","44","44","44","44","44","45","/","Thu Nov 30 09:25:03 2023","Executes Python code","yes","m21-ba-lexicalDecision.osexp","C:\Users\ekealey\Desktop","no","mono","no","18","no","white","no","yes","1080","legacy","44","44","C:/Users/ekealey/Desktop/subject-230.csv","xpyriment","Lentiform Loewenfeld","3.3.11","0","/","NA","NA","NA","NA","space","/","710","NA","NA","NA","NA","36317","710","2","legacy","1024","2","48000","-16","AB_m21","230","even","CW_S","NOTICEABLE","1732","236454","233069","234951","38211","NA","NA","NA","NA","NA","233571","NA","NA","NA","232568","NA","232540","1893","236704","NA","NA","NA","233611","1732","1882","NA","NA","234321","234347","232540","233571","233591","morph21_Oliver/Morris","35","37592","45","yes","1920","3"
"200","","78.26086956521739","78.26086956521739","837.5217391304348","837.5217391304348","black","no","xpyriment","legacy","legacy","0","205","NA","uniform","NA","NA","NA","1","undefined","1","0","45","45","45","0","45","45","45","NA","0","45","NA","NA","0","45","NA","45","0","45","NA","NA","NA","45","0","0","NA","NA","45","45","45","45","45","46","z","Thu Nov 30 09:25:03 2023","Executes Python code","yes","m21-ba-lexicalDecision.osexp","C:\Users\ekealey\Desktop","no","mono","no","18","no","white","no","yes","1080","legacy","45","45","C:/Users/ekealey/Desktop/subject-230.csv","xpyriment","Lentiform Loewenfeld","3.3.11","0","z","NA","NA","NA","NA","space","z","934","NA","NA","NA","NA","36317","934","2","legacy","1024","2","48000","-16","AB_m21","230","even","NW_S_SIMP","JAWLY","1732","240383","238279","234951","38211","NA","NA","NA","NA","NA","238779","NA","NA","NA","237779","NA","237749","1893","240583","NA","NA","NA","238819","1732","1882","NA","NA","239753","239779","237749","238779","238799","morph21_Oliver/Morris","36","38526","46","yes","1920","7"
"300","","78.72340425531915","78.72340425531915","830.6170212765958","830.6170212765958","black","no","xpyriment","legacy","legacy","0","208","NA","uniform","NA","NA","NA","1","undefined","1","0","46","46","46","0","46","46","46","NA","0","46","NA","NA","0","46","NA","46","0","46","NA","NA","NA","46","0","0","NA","NA","46","46","46","46","46","47","z","Thu Nov 30 09:25:03 2023","Executes Python code","yes","m21-ba-lexicalDecision.osexp","C:\Users\ekealey\Desktop","no","mono","no","18","no","white","no","yes","1080","legacy","46","46","C:/Users/ekealey/Desktop/subject-230.csv","xpyriment","Lentiform Loewenfeld","3.3.11","0","z","NA","NA","NA","NA","space","z","513","NA","NA","NA","NA","36317","513","2","legacy","1024","2","48000","-16","AB_m21","230","even","FILL_NW","VOOFS","1732","243823","242139","234951","38211","NA","NA","NA","NA","NA","242641","NA","NA","NA","241638","NA","241611","1893","244123","NA","NA","NA","242681","1732","1882","NA","NA","243195","243218","241611","242640","242661","morph21_Oliver/Morris","37","39039","47","yes","1920","48"
"200","","79.16666666666667","79.16666666666667","825.6041666666666","825.6041666666666","black","no","xpyriment","legacy","legacy","0","207","NA","uniform","NA","NA","NA","1","undefined","1","0","47","47","47","0","47","47","47","NA","0","47","NA","NA","0","47","NA","47","0","47","NA","NA","NA","47","0","0","NA","NA","47","47","47","47","47","48","/","Thu Nov 30 09:25:03 2023","Executes Python code","yes","m21-ba-lexicalDecision.osexp","C:\Users\ekealey\Desktop","no","mono","no","18","no","white","no","yes","1080","legacy","47","47","C:/Users/ekealey/Desktop/subject-230.csv","xpyriment","Lentiform Loewenfeld","3.3.11","0","/","NA","NA","NA","NA","space","/","590","NA","NA","NA","NA","36317","590","2","legacy","1024","2","48000","-16","AB_m21","230","even","FILL_W","LEGAL","1732","248941","245678","247438","38211","NA","NA","NA","NA","NA","246179","NA","NA","NA","245177","NA","245149","1893","249141","NA","NA","NA","246219","1732","1882","NA","NA","246810","246834","245149","246178","246199","morph21_Oliver/Morris","38","39629","48","yes","1920","35"
"300","","79.59183673469387","79.59183673469387","824.5714285714286","824.5714285714286","black","no","xpyriment","legacy","legacy","0","205","NA","uniform","NA","NA","NA","1","undefined","1","0","48","48","48","0","48","48","48","NA","0","48","NA","NA","0","48","NA","48","0","48","NA","NA","NA","48","0","0","NA","NA","48","48","48","48","48","49","z","Thu Nov 30 09:25:03 2023","Executes Python code","yes","m21-ba-lexicalDecision.osexp","C:\Users\ekealey\Desktop","no","mono","no","18","no","white","no","yes","1080","legacy","48","48","C:/Users/ekealey/Desktop/subject-230.csv","xpyriment","Lentiform Loewenfeld","3.3.11","0","z","NA","NA","NA","NA","space","z","775","NA","NA","NA","NA","36317","775","2","legacy","1024","2","48000","-16","AB_m21","230","even","NW_S_SIMP","WARNORY","1732","252685","250741","247438","38211","NA","NA","NA","NA","NA","251242","NA","NA","NA","250240","NA","250213","1893","252985","NA","NA","NA","251282","1732","1882","NA","NA","252058","252082","250213","251242","251262","morph21_Oliver/Morris","39","40404","49","yes","1920","12"
"250","","80","80","820.3","820.3","black","no","xpyriment","legacy","legacy","0","208","NA","uniform","NA","NA","NA","1","undefined","1","0","49","49","49","0","49","49","49","NA","0","49","NA","NA","0","49","NA","49","0","49","NA","NA","NA","49","0","0","NA","NA","49","49","49","49","49","50","z","Thu Nov 30 09:25:03 2023","Executes Python code","yes","m21-ba-lexicalDecision.osexp","C:\Users\ekealey\Desktop","no","mono","no","18","no","white","no","yes","1080","legacy","49","49","C:/Users/ekealey/Desktop/subject-230.csv","xpyriment","Lentiform Loewenfeld","3.3.11","0","z","NA","NA","NA","NA","space","z","611","NA","NA","NA","NA","36317","611","2","legacy","1024","2","48000","-16","AB_m21","230","even","FILL_NW","PLAODS","1732","256325","254545","247438","38211","NA","NA","NA","NA","NA","255045","NA","NA","NA","254044","NA","254018","1893","256575","NA","NA","NA","255087","1732","1882","NA","NA","255699","255722","254018","255045","255066","morph21_Oliver/Morris","40","41015","50","yes","1920","37"
"250","","80.3921568627451","80.3921568627451","816.8039215686274","816.8039215686274","black","no","xpyriment","legacy","legacy","0","208","NA","uniform","NA","NA","NA","1","undefined","1","0","50","50","50","0","50","50","50","NA","0","50","NA","NA","0","50","NA","50","0","50","NA","NA","NA","50","0","0","NA","NA","50","50","50","50","50","51","z","Thu Nov 30 09:25:03 2023","Executes Python code","yes","m21-ba-lexicalDecision.osexp","C:\Users\ekealey\Desktop","no","mono","no","18","no","white","no","yes","1080","legacy","50","50","C:/Users/ekealey/Desktop/subject-230.csv","xpyriment","Lentiform Loewenfeld","3.3.11","0","z","NA","NA","NA","NA","space","z","642","NA","NA","NA","NA","36317","642","2","legacy","1024","2","48000","-16","AB_m21","230","even","FILL_NW","LOLDS","1732","261516","258200","260013","38211","NA","NA","NA","NA","NA","258702","NA","NA","NA","257698","NA","257671","1893","261766","NA","NA","NA","258743","1732","1882","NA","NA","259386","259410","257671","258702","258722","morph21_Oliver/Morris","41","41657","51","yes","1920","34"
"400","","80.76923076923077","80.76923076923077","820.9423076923077","820.9423076923077","black","no","xpyriment","legacy","legacy","0","202","NA","uniform","NA","NA","NA","1","undefined","1","0","51","51","51","0","51","51","51","NA","0","51","NA","NA","0","51","NA","51","0","51","NA","NA","NA","51","0","0","NA","NA","51","51","51","51","51","52","/","Thu Nov 30 09:25:03 2023","Executes Python code","yes","m21-ba-lexicalDecision.osexp","C:\Users\ekealey\Desktop","no","mono","no","18","no","white","no","yes","1080","legacy","51","51","C:/Users/ekealey/Desktop/subject-230.csv","xpyriment","Lentiform Loewenfeld","3.3.11","0","/","NA","NA","NA","NA","space","/","1032","NA","NA","NA","NA","36317","1032","2","legacy","1024","2","48000","-16","AB_m21","230","even","CW_L","SHAPELY","1732","265557","263356","260013","38211","NA","NA","NA","NA","NA","263856","NA","NA","NA","262856","NA","262828","1893","265958","NA","NA","NA","263897","1732","1882","NA","NA","264930","264954","262828","263856","263877","morph21_Oliver/Morris","42","42689","52","yes","1920","35"
"400","","79.24528301886792","79.24528301886792","821.0566037735849","821.0566037735849","black","no","xpyriment","legacy","legacy","0","204","NA","uniform","NA","NA","NA","0","undefined","0","0","52","52","52","0","52","52","52","NA","0","52","NA","NA","0","52","NA","52","0","52","NA","NA","NA","52","0","0","NA","NA","52","52","52","52","52","53","z","Thu Nov 30 09:25:03 2023","Executes Python code","yes","m21-ba-lexicalDecision.osexp","C:\Users\ekealey\Desktop","no","mono","no","18","no","white","no","yes","1080","legacy","52","52","C:/Users/ekealey/Desktop/subject-230.csv","xpyriment","Lentiform Loewenfeld","3.3.11","0","/","NA","NA","NA","NA","space","/","827","NA","NA","NA","NA","36317","827","2","legacy","1024","2","48000","-16","AB_m21","230","even","NW_L_COMP","FLITENGE","1732","269503","267505","260013","38211","NA","NA","NA","NA","NA","268006","NA","NA","NA","267005","NA","266978","1893","269903","NA","NA","NA","268046","1732","1882","NA","NA","268874","268898","266978","268006","268026","morph21_Oliver/Morris","42","43516","53","yes","1920","3"
"300","","79.62962962962963","79.62962962962963","819.7592592592592","819.7592592592592","black","no","xpyriment","legacy","legacy","0","201","NA","uniform","NA","NA","NA","1","undefined","1","0","53","53","53","0","53","53","53","NA","0","53","NA","NA","0","53","NA","53","0","53","NA","NA","NA","53","0","0","NA","NA","53","53","53","53","53","54","/","Thu Nov 30 09:25:03 2023","Executes Python code","yes","m21-ba-lexicalDecision.osexp","C:\Users\ekealey\Desktop","no","mono","no","18","no","white","no","yes","1080","legacy","53","53","C:/Users/ekealey/Desktop/subject-230.csv","xpyriment","Lentiform Loewenfeld","3.3.11","0","/","NA","NA","NA","NA","space","/","751","NA","NA","NA","NA","36317","751","2","legacy","1024","2","48000","-16","AB_m21","230","even","CW_S","GUILTY","1732","274886","271461","273383","38211","NA","NA","NA","NA","NA","271961","NA","NA","NA","270960","NA","270931","1893","275186","NA","NA","NA","272002","1732","1882","NA","NA","272754","272779","270931","271961","271982","morph21_Oliver/Morris","43","44267","54","yes","1920","34"
"400","","80","80","823.2727272727273","823.2727272727273","black","no","xpyriment","legacy","legacy","0","201","NA","uniform","NA","NA","NA","1","undefined","1","0","54","54","54","0","54","54","54","NA","0","54","NA","NA","0","54","NA","54","0","54","NA","NA","NA","54","0","0","NA","NA","54","54","54","54","54","55","/","Thu Nov 30 09:25:03 2023","Executes Python code","yes","m21-ba-lexicalDecision.osexp","C:\Users\ekealey\Desktop","no","mono","no","18","no","white","no","yes","1080","legacy","54","54","C:/Users/ekealey/Desktop/subject-230.csv","xpyriment","Lentiform Loewenfeld","3.3.11","0","/","NA","NA","NA","NA","space","/","1013","NA","NA","NA","NA","36317","1013","2","legacy","1024","2","48000","-16","AB_m21","230","even","CW_S","WIDOWED","1732","278948","276766","273383","38211","NA","NA","NA","NA","NA","277267","NA","NA","NA","276265","NA","276232","1893","279348","NA","NA","NA","277308","1732","1882","NA","NA","278322","278345","276232","277267","277288","morph21_Oliver/Morris","44","45280","55","yes","1920","7"
"250","","80.35714285714286","80.35714285714286","816.8392857142857","816.8392857142857","black","no","xpyriment","legacy","legacy","0","202","NA","uniform","NA","NA","NA","1","undefined","1","0","55","55","55","0","55","55","55","NA","0","55","NA","NA","0","55","NA","55","0","55","NA","NA","NA","55","0","0","NA","NA","55","55","55","55","55","56","/","Thu Nov 30 09:25:03 2023","Executes Python code","yes","m21-ba-lexicalDecision.osexp","C:\Users\ekealey\Desktop","no","mono","no","18","no","white","no","yes","1080","legacy","55","55","C:/Users/ekealey/Desktop/subject-230.csv","xpyriment","Lentiform Loewenfeld","3.3.11","0","/","NA","NA","NA","NA","space","/","463","NA","NA","NA","NA","36317","463","2","legacy","1024","2","48000","-16","AB_m21","230","even","CW_L","FLEXIBLE","1732","282557","280925","273383","38211","NA","NA","NA","NA","NA","281427","NA","NA","NA","280425","NA","280400","1893","282808","NA","NA","NA","281467","1732","1882","NA","NA","281931","281954","280400","281427","281447","morph21_Oliver/Morris","45","45743","56","yes","1920","22"
"200","","80.70175438596492","80.70175438596492","820.140350877193","820.140350877193","black","no","xpyriment","legacy","legacy","0","202","NA","uniform","NA","NA","NA","1","undefined","1","0","56","56","56","0","56","56","56","NA","0","56","NA","NA","0","56","NA","56","0","56","NA","NA","NA","56","0","0","NA","NA","56","56","56","56","56","57","/","Thu Nov 30 09:25:03 2023","Executes Python code","yes","m21-ba-lexicalDecision.osexp","C:\Users\ekealey\Desktop","no","mono","no","18","no","white","no","yes","1080","legacy","56","56","C:/Users/ekealey/Desktop/subject-230.csv","xpyriment","Lentiform Loewenfeld","3.3.11","0","/","NA","NA","NA","NA","space","/","1005","NA","NA","NA","NA","36317","1005","2","legacy","1024","2","48000","-16","AB_m21","230","even","CW_L","BOOTLESS","1732","288040","284357","286533","38211","NA","NA","NA","NA","NA","284860","NA","NA","NA","283855","NA","283827","1893","288240","NA","NA","NA","284900","1732","1882","NA","NA","285906","285929","283827","284859","284880","morph21_Oliver/Morris","46","46748","57","yes","1920","32"
"250","","81.03448275862068","81.03448275862068","817.551724137931","817.551724137931","black","no","xpyriment","legacy","legacy","0","202","NA","uniform","NA","NA","NA","1","undefined","1","0","57","57","57","0","57","57","57","NA","0","57","NA","NA","0","57","NA","57","0","57","NA","NA","NA","57","0","0","NA","NA","57","57","57","57","57","58","/","Thu Nov 30 09:25:03 2023","Executes Python code","yes","m21-ba-lexicalDecision.osexp","C:\Users\ekealey\Desktop","no","mono","no","18","no","white","no","yes","1080","legacy","57","57","C:/Users/ekealey/Desktop/subject-230.csv","xpyriment","Lentiform Loewenfeld","3.3.11","0","/","NA","NA","NA","NA","space","/","670","NA","NA","NA","NA","36317","670","2","legacy","1024","2","48000","-16","AB_m21","230","even","CW_L","CREAMY","1732","291654","289814","286533","38211","NA","NA","NA","NA","NA","290314","NA","NA","NA","289313","NA","289282","1893","291904","NA","NA","NA","290355","1732","1882","NA","NA","291026","291050","289282","290314","290335","morph21_Oliver/Morris","47","47418","58","yes","1920","49"
"250","","81.35593220338983","81.35593220338983","813.6101694915254","813.6101694915254","black","no","xpyriment","legacy","legacy","0","203","NA","uniform","NA","NA","NA","1","undefined","1","0","58","58","58","0","58","58","58","NA","0","58","NA","NA","0","58","NA","58","0","58","NA","NA","NA","58","0","0","NA","NA","58","58","58","58","58","59","z","Thu Nov 30 09:25:03 2023","Executes Python code","yes","m21-ba-lexicalDecision.osexp","C:\Users\ekealey\Desktop","no","mono","no","18","no","white","no","yes","1080","legacy","58","58","C:/Users/ekealey/Desktop/subject-230.csv","xpyriment","Lentiform Loewenfeld","3.3.11","0","z","NA","NA","NA","NA","space","z","585","NA","NA","NA","NA","36317","585","2","legacy","1024","2","48000","-16","AB_m21","230","even","NW_S_COMP","LIDADY","1732","295239","293484","286533","38211","NA","NA","NA","NA","NA","293984","NA","NA","NA","292983","NA","292950","1893","295489","NA","NA","NA","294024","1732","1882","NA","NA","294610","294635","292950","293984","294004","morph21_Oliver/Morris","48","48003","59","yes","1920","3"
"400","","81.66666666666667","81.66666666666667","809.05","809.05","black","no","xpyriment","legacy","legacy","0","201","NA","uniform","NA","NA","NA","1","undefined","1","0","59","59","59","0","59","59","59","NA","0","59","NA","NA","0","59","NA","59","0","59","NA","NA","NA","59","0","0","NA","NA","59","59","59","59","59","60","/","Thu Nov 30 09:25:03 2023","Executes Python code","yes","m21-ba-lexicalDecision.osexp","C:\Users\ekealey\Desktop","no","mono","no","18","no","white","no","yes","1080","legacy","59","59","C:/Users/ekealey/Desktop/subject-230.csv","xpyriment","Lentiform Loewenfeld","3.3.11","0","/","NA","NA","NA","NA","space","/","540","NA","NA","NA","NA","36317","540","2","legacy","1024","2","48000","-16","AB_m21","230","even","CW_S","AVOIDABLE","1732","300271","297056","298767","38211","NA","NA","NA","NA","NA","297557","NA","NA","NA","296556","NA","296525","1893","300671","NA","NA","NA","297597","1732","1882","NA","NA","298138","298162","296525","297557","297577","morph21_Oliver/Morris","49","48543","60","yes","1920","2"
"250","","81.9672131147541","81.9672131147541","810.4098360655738","810.4098360655738","black","no","xpyriment","legacy","legacy","0","207","NA","uniform","NA","NA","NA","1","undefined","1","0","60","60","60","0","60","60","60","NA","0","60","NA","NA","0","60","NA","60","0","60","NA","NA","NA","60","0","0","NA","NA","60","60","60","60","60","61","/","Thu Nov 30 09:25:03 2023","Executes Python code","yes","m21-ba-lexicalDecision.osexp","C:\Users\ekealey\Desktop","no","mono","no","18","no","white","no","yes","1080","legacy","60","60","C:/Users/ekealey/Desktop/subject-230.csv","xpyriment","Lentiform Loewenfeld","3.3.11","0","/","NA","NA","NA","NA","space","/","892","NA","NA","NA","NA","36317","892","2","legacy","1024","2","48000","-16","AB_m21","230","even","FILL_W","WEAVE","1732","304286","302224","298767","38211","NA","NA","NA","NA","NA","302724","NA","NA","NA","301724","NA","301688","1893","304536","NA","NA","NA","302765","1732","1882","NA","NA","303658","303682","301688","302724","302745","morph21_Oliver/Morris","50","49435","61","yes","1920","12"
"200","","82.25806451612904","82.25806451612904","805.258064516129","805.258064516129","black","no","xpyriment","legacy","legacy","0","207","NA","uniform","NA","NA","NA","1","undefined","1","0","61","61","61","0","61","61","61","NA","0","61","NA","NA","0","61","NA","61","0","61","NA","NA","NA","61","0","0","NA","NA","61","61","61","61","61","62","/","Thu Nov 30 09:25:03 2023","Executes Python code","yes","m21-ba-lexicalDecision.osexp","C:\Users\ekealey\Desktop","no","mono","no","18","no","white","no","yes","1080","legacy","61","61","C:/Users/ekealey/Desktop/subject-230.csv","xpyriment","Lentiform Loewenfeld","3.3.11","0","/","NA","NA","NA","NA","space","/","491","NA","NA","NA","NA","36317","491","2","legacy","1024","2","48000","-16","AB_m21","230","even","FILL_W","WRECK","1732","307756","306096","298767","38211","NA","NA","NA","NA","NA","306597","NA","NA","NA","305596","NA","305564","1893","307957","NA","NA","NA","306638","1732","1882","NA","NA","307130","307153","305564","306597","306618","morph21_Oliver/Morris","51","49926","62","yes","1920","13"
"350","","80.95238095238095","80.95238095238095","811.5238095238095","811.5238095238095","black","no","xpyriment","legacy","legacy","0","208","NA","uniform","NA","NA","NA","0","undefined","0","0","62","62","62","0","62","62","62","NA","0","62","NA","NA","0","62","NA","62","0","62","NA","NA","NA","62","0","0","NA","NA","62","62","62","62","62","63","z","Thu Nov 30 09:25:03 2023","Executes Python code","yes","m21-ba-lexicalDecision.osexp","C:\Users\ekealey\Desktop","no","mono","no","18","no","white","no","yes","1080","legacy","62","62","C:/Users/ekealey/Desktop/subject-230.csv","xpyriment","Lentiform Loewenfeld","3.3.11","0","None","NA","NA","NA","NA","space","None","1200","NA","NA","NA","NA","36317","1200","2","legacy","1024","2","48000","-16","AB_m21","230","even","FILL_NW","DOADS","1732","313393","309520","311889","38211","NA","NA","NA","NA","NA","310021","NA","NA","NA","309020","NA","308990","1893","313743","NA","NA","NA","310061","1732","1882","NA","NA","311261","311285","308990","310021","310041","morph21_Oliver/Morris","51","51126","63","yes","1920","15"
"400","","81.25","81.25","809.125","809.125","black","no","xpyriment","legacy","legacy","0","202","NA","uniform","NA","NA","NA","1","undefined","1","0","63","63","63","0","63","63","63","NA","0","63","NA","NA","0","63","NA","63","0","63","NA","NA","NA","63","0","0","NA","NA","63","63","63","63","63","64","/","Thu Nov 30 09:25:03 2023","Executes Python code","yes","m21-ba-lexicalDecision.osexp","C:\Users\ekealey\Desktop","no","mono","no","18","no","white","no","yes","1080","legacy","63","63","C:/Users/ekealey/Desktop/subject-230.csv","xpyriment","Lentiform Loewenfeld","3.3.11","0","/","NA","NA","NA","NA","space","/","658","NA","NA","NA","NA","36317","658","2","legacy","1024","2","48000","-16","AB_m21","230","even","CW_L","CONDUCTOR","1732","317136","315306","311889","38211","NA","NA","NA","NA","NA","315807","NA","NA","NA","314805","NA","314776","1893","317537","NA","NA","NA","315847","1732","1882","NA","NA","316505","316531","314776","315806","315827","morph21_Oliver/Morris","52","51784","64","yes","1920","44"
"350","","81.53846153846153","81.53846153846153","809.7384615384616","809.7384615384616","black","no","xpyriment","legacy","legacy","0","202","NA","uniform","NA","NA","NA","1","undefined","1","0","64","64","64","0","64","64","64","NA","0","64","NA","NA","0","64","NA","64","0","64","NA","NA","NA","64","0","0","NA","NA","64","64","64","64","64","65","/","Thu Nov 30 09:25:03 2023","Executes Python code","yes","m21-ba-lexicalDecision.osexp","C:\Users\ekealey\Desktop","no","mono","no","18","no","white","no","yes","1080","legacy","64","64","C:/Users/ekealey/Desktop/subject-230.csv","xpyriment","Lentiform Loewenfeld","3.3.11","0","/","NA","NA","NA","NA","space","/","849","NA","NA","NA","NA","36317","849","2","legacy","1024","2","48000","-16","AB_m21","230","even","CW_L","JUMPING","1732","321111","319090","311889","38211","NA","NA","NA","NA","NA","319591","NA","NA","NA","318589","NA","318563","1893","321462","NA","NA","NA","319632","1732","1882","NA","NA","320481","320508","318563","319591","319612","morph21_Oliver/Morris","53","52633","65","yes","1920","30"
"400","","80.3030303030303","80.3030303030303","806.2575757575758","806.2575757575758","black","no","xpyriment","legacy","legacy","0","208","NA","uniform","NA","NA","NA","0","undefined","0","0","65","65","65","0","65","65","65","NA","0","65","NA","NA","0","65","NA","65","0","65","NA","NA","NA","65","0","0","NA","NA","65","65","65","65","65","66","z","Thu Nov 30 09:25:03 2023","Executes Python code","yes","m21-ba-lexicalDecision.osexp","C:\Users\ekealey\Desktop","no","mono","no","18","no","white","no","yes","1080","legacy","65","65","C:/Users/ekealey/Desktop/subject-230.csv","xpyriment","Lentiform Loewenfeld","3.3.11","0","/","NA","NA","NA","NA","space","/","580","NA","NA","NA","NA","36317","580","2","legacy","1024","2","48000","-16","AB_m21","230","even","FILL_NW","HEND","1732","326281","323024","324777","38211","NA","NA","NA","NA","NA","323524","NA","NA","NA","322523","NA","322493","1893","326681","NA","NA","NA","323565","1732","1882","NA","NA","324145","324173","322493","323524","323545","morph21_Oliver/Morris","53","53213","66","yes","1920","28"
"200","","79.1044776119403","79.1044776119403","807.0298507462686","807.0298507462686","black","no","xpyriment","legacy","legacy","0","208","NA","uniform","NA","NA","NA","0","undefined","0","0","66","66","66","0","66","66","66","NA","0","66","NA","NA","0","66","NA","66","0","66","NA","NA","NA","66","0","0","NA","NA","66","66","66","66","66","67","z","Thu Nov 30 09:25:03 2023","Executes Python code","yes","m21-ba-lexicalDecision.osexp","C:\Users\ekealey\Desktop","no","mono","no","18","no","white","no","yes","1080","legacy","66","66","C:/Users/ekealey/Desktop/subject-230.csv","xpyriment","Lentiform Loewenfeld","3.3.11","0","/","NA","NA","NA","NA","space","/","858","NA","NA","NA","NA","36317","858","2","legacy","1024","2","48000","-16","AB_m21","230","even","FILL_NW","HOITS","1732","330272","328241","324777","38211","NA","NA","NA","NA","NA","328742","NA","NA","NA","327740","NA","327711","1893","330472","NA","NA","NA","328783","1732","1882","NA","NA","329642","329668","327711","328742","328763","morph21_Oliver/Morris","53","54071","67","yes","1920","30"
"300","","79.41176470588235","79.41176470588235","804.4705882352941","804.4705882352941","black","no","xpyriment","legacy","legacy","0","207","NA","uniform","NA","NA","NA","1","undefined","1","0","67","67","67","0","67","67","67","NA","0","67","NA","NA","0","67","NA","67","0","67","NA","NA","NA","67","0","0","NA","NA","67","67","67","67","67","68","/","Thu Nov 30 09:25:03 2023","Executes Python code","yes","m21-ba-lexicalDecision.osexp","C:\Users\ekealey\Desktop","no","mono","no","18","no","white","no","yes","1080","legacy","67","67","C:/Users/ekealey/Desktop/subject-230.csv","xpyriment","Lentiform Loewenfeld","3.3.11","0","/","NA","NA","NA","NA","space","/","633","NA","NA","NA","NA","36317","633","2","legacy","1024","2","48000","-16","AB_m21","230","even","FILL_W","BOX","1732","333822","332020","324777","38211","NA","NA","NA","NA","NA","332520","NA","NA","NA","331520","NA","331489","1893","334122","NA","NA","NA","332561","1732","1882","NA","NA","333194","333218","331489","332520","332541","morph21_Oliver/Morris","54","54704","68","yes","1920","42"
"350","","79.71014492753623","79.71014492753623","804.3623188405797","804.3623188405797","black","no","xpyriment","legacy","legacy","0","203","NA","uniform","NA","NA","NA","1","undefined","1","0","68","68","68","0","68","68","68","NA","0","68","NA","NA","0","68","NA","68","0","68","NA","NA","NA","68","0","0","NA","NA","68","68","68","68","68","69","z","Thu Nov 30 09:25:03 2023","Executes Python code","yes","m21-ba-lexicalDecision.osexp","C:\Users\ekealey\Desktop","no","mono","no","18","no","white","no","yes","1080","legacy","68","68","C:/Users/ekealey/Desktop/subject-230.csv","xpyriment","Lentiform Loewenfeld","3.3.11","0","z","NA","NA","NA","NA","space","z","797","NA","NA","NA","NA","36317","797","2","legacy","1024","2","48000","-16","AB_m21","230","even","NW_S_COMP","FIENDILM","1732","339156","335687","337653","38211","NA","NA","NA","NA","NA","336187","NA","NA","NA","335186","NA","335155","1893","339506","NA","NA","NA","336228","1732","1882","NA","NA","337027","337050","335155","336187","336208","morph21_Oliver/Morris","55","55501","69","yes","1920","24"
"250","","80","80","808.5142857142857","808.5142857142857","black","no","xpyriment","legacy","legacy","0","206","NA","uniform","NA","NA","NA","1","undefined","1","0","69","69","69","0","69","69","69","NA","0","69","NA","NA","0","69","NA","69","0","69","NA","NA","NA","69","0","0","NA","NA","69","69","69","69","69","70","z","Thu Nov 30 09:25:03 2023","Executes Python code","yes","m21-ba-lexicalDecision.osexp","C:\Users\ekealey\Desktop","no","mono","no","18","no","white","no","yes","1080","legacy","69","69","C:/Users/ekealey/Desktop/subject-230.csv","xpyriment","Lentiform Loewenfeld","3.3.11","0","z","NA","NA","NA","NA","space","z","1095","NA","NA","NA","NA","36317","1095","2","legacy","1024","2","48000","-16","AB_m21","230","even","NW_L_SIMP","SHOOTMENT","1732","343357","341093","337653","38211","NA","NA","NA","NA","NA","341593","NA","NA","NA","340593","NA","340566","1893","343607","NA","NA","NA","341634","1732","1882","NA","NA","342730","342753","340565","341593","341614","morph21_Oliver/Morris","56","56596","70","yes","1920","16"
"200","","80.28169014084507","80.28169014084507","805.887323943662","805.887323943662","black","no","xpyriment","legacy","legacy","0","208","NA","uniform","NA","NA","NA","1","undefined","1","0","70","70","70","0","70","70","70","NA","0","70","NA","NA","0","70","NA","70","0","70","NA","NA","NA","70","0","0","NA","NA","70","70","70","70","70","71","z","Thu Nov 30 09:25:03 2023","Executes Python code","yes","m21-ba-lexicalDecision.osexp","C:\Users\ekealey\Desktop","no","mono","no","18","no","white","no","yes","1080","legacy","70","70","C:/Users/ekealey/Desktop/subject-230.csv","xpyriment","Lentiform Loewenfeld","3.3.11","0","z","NA","NA","NA","NA","space","z","622","NA","NA","NA","NA","36317","622","2","legacy","1024","2","48000","-16","AB_m21","230","even","FILL_NW","HESK","1732","346948","345158","337653","38211","NA","NA","NA","NA","NA","345659","NA","NA","NA","344658","NA","344628","1893","347148","NA","NA","NA","345699","1732","1882","NA","NA","346321","346345","344628","345658","345679","morph21_Oliver/Morris","57","57218","71","yes","1920","29"
"400","","79.16666666666667","79.16666666666667","808.1805555555555","808.1805555555555","black","no","xpyriment","legacy","legacy","0","206","NA","uniform","NA","NA","NA","0","undefined","0","0","71","71","71","0","71","71","71","NA","0","71","NA","NA","0","71","NA","71","0","71","NA","NA","NA","71","0","0","NA","NA","71","71","71","71","71","72","z","Thu Nov 30 09:25:03 2023","Executes Python code","yes","m21-ba-lexicalDecision.osexp","C:\Users\ekealey\Desktop","no","mono","no","18","no","white","no","yes","1080","legacy","71","71","C:/Users/ekealey/Desktop/subject-230.csv","xpyriment","Lentiform Loewenfeld","3.3.11","0","/","NA","NA","NA","NA","space","/","971","NA","NA","NA","NA","36317","971","2","legacy","1024","2","48000","-16","AB_m21","230","even","NW_L_SIMP","BOGARY","1732","352338","348688","350832","38211","NA","NA","NA","NA","NA","349189","NA","NA","NA","348188","NA","348156","1893","352738","NA","NA","NA","349230","1732","1882","NA","NA","350202","350226","348156","349189","349210","morph21_Oliver/Morris","57","58189","72","yes","1920","2"
"300","","79.45205479452055","79.45205479452055","807.068493150685","807.068493150685","black","no","xpyriment","legacy","legacy","0","207","NA","uniform","NA","NA","NA","1","undefined","1","0","72","72","72","0","72","72","72","NA","0","72","NA","NA","0","72","NA","72","0","72","NA","NA","NA","72","0","0","NA","NA","72","72","72","72","72","73","/","Thu Nov 30 09:25:03 2023","Executes Python code","yes","m21-ba-lexicalDecision.osexp","C:\Users\ekealey\Desktop","no","mono","no","18","no","white","no","yes","1080","legacy","72","72","C:/Users/ekealey/Desktop/subject-230.csv","xpyriment","Lentiform Loewenfeld","3.3.11","0","/","NA","NA","NA","NA","space","/","727","NA","NA","NA","NA","36317","727","2","legacy","1024","2","48000","-16","AB_m21","230","even","FILL_W","BLUNT","1732","356207","354308","350832","38211","NA","NA","NA","NA","NA","354810","NA","NA","NA","353808","NA","353778","1893","356508","NA","NA","NA","354850","1732","1882","NA","NA","355578","355603","353778","354810","354830","morph21_Oliver/Morris","58","58916","73","yes","1920","4"
"300","","79.72972972972973","79.72972972972973","802.2027027027027","802.2027027027027","black","no","xpyriment","legacy","legacy","0","201","NA","uniform","NA","NA","NA","1","undefined","1","0","73","73","73","0","73","73","73","NA","0","73","NA","NA","0","73","NA","73","0","73","NA","NA","NA","73","0","0","NA","NA","73","73","73","73","73","74","/","Thu Nov 30 09:25:03 2023","Executes Python code","yes","m21-ba-lexicalDecision.osexp","C:\Users\ekealey\Desktop","no","mono","no","18","no","white","no","yes","1080","legacy","73","73","C:/Users/ekealey/Desktop/subject-230.csv","xpyriment","Lentiform Loewenfeld","3.3.11","0","/","NA","NA","NA","NA","space","/","447","NA","NA","NA","NA","36317","447","2","legacy","1024","2","48000","-16","AB_m21","230","even","CW_S","RISKY","1732","359672","358053","350832","38211","NA","NA","NA","NA","NA","358553","NA","NA","NA","357552","NA","357522","1893","359972","NA","NA","NA","358594","1732","1882","NA","NA","359042","359068","357522","358553","358574","morph21_Oliver/Morris","59","59363","74","yes","1920","50"
"300","","80","80","801.92","801.92","black","no","xpyriment","legacy","legacy","0","204","NA","uniform","NA","NA","NA","undefined","undefined","1","0","74","74","74","0","74","74","74","NA","0","74","NA","NA","0","74","NA","74","0","74","NA","NA","NA","74","0","0","NA","NA","74","74","74","74","74","75","z","Thu Nov 30 09:25:03 2023","Executes Python code","yes","m21-ba-lexicalDecision.osexp","C:\Users\ekealey\Desktop","no","mono","no","18","no","white","no","yes","1080","legacy","74","74","C:/Users/ekealey/Desktop/subject-230.csv","xpyriment","Lentiform Loewenfeld","3.3.11","0","space","space","NA","NA","NA","space","z","20595","20595","NA","NA","NA","36317","781","2","legacy","1024","2","48000","-16","AB_m21","230","even","NW_L_COMP","BINDIG","1732","365013","361559","363510","38211","365318","NA","NA","NA","NA","362059","NA","NA","NA","361058","NA","361029","1893","385913","NA","NA","NA","362100","1732","1882","NA","NA","362881","362906","361029","362059","362080","morph21_Oliver/Morris","60","60144","75","yes","1920","22"
"200","","80.26315789473684","80.26315789473684","803.2894736842105","803.2894736842105","black","no","xpyriment","legacy","legacy","0","207","NA","uniform","NA","NA","NA","1","undefined","1","0","75","75","75","0","75","75","75","NA","0","75","NA","NA","0","75","NA","75","0","75","NA","NA","NA","75","0","0","NA","NA","75","75","75","75","75","76","/","Thu Nov 30 09:25:03 2023","Executes Python code","yes","m21-ba-lexicalDecision.osexp","C:\Users\ekealey\Desktop","no","mono","no","18","no","white","no","yes","1080","legacy","75","75","C:/Users/ekealey/Desktop/subject-230.csv","xpyriment","Lentiform Loewenfeld","3.3.11","0","/","space","NA","NA","NA","space","/","906","20595","NA","NA","NA","36317","906","2","legacy","1024","2","48000","-16","AB_m21","230","even","FILL_W","GOLF","1732","389581","387506","363510","38211","365318","NA","NA","NA","NA","388007","NA","NA","NA","387004","NA","386978","1893","389781","NA","NA","NA","388047","1732","1882","NA","NA","388953","388977","386977","388007","388027","morph21_Oliver/Morris","61","61050","76","yes","1920","28"
"400","","80.51948051948052","80.51948051948052","801.5454545454545","801.5454545454545","black","no","xpyriment","legacy","legacy","0","208","NA","uniform","NA","NA","NA","1","undefined","1","0","76","76","76","0","76","76","76","NA","0","76","NA","NA","0","76","NA","76","0","76","NA","NA","NA","76","0","0","NA","NA","76","76","76","76","76","77","z","Thu Nov 30 09:25:03 2023","Executes Python code","yes","m21-ba-lexicalDecision.osexp","C:\Users\ekealey\Desktop","no","mono","no","18","no","white","no","yes","1080","legacy","76","76","C:/Users/ekealey/Desktop/subject-230.csv","xpyriment","Lentiform Loewenfeld","3.3.11","0","z","space","NA","NA","NA","space","z","669","20595","NA","NA","NA","36317","669","2","legacy","1024","2","48000","-16","AB_m21","230","even","FILL_NW","DROES","1732","393180","391343","363510","38211","365318","NA","NA","NA","NA","391843","NA","NA","NA","390840","NA","390813","1893","393580","NA","NA","NA","391884","1732","1882","NA","NA","392554","392577","390813","391843","391864","morph21_Oliver/Morris","62","61719","77","yes","1920","17"
"200","","80.76923076923077","80.76923076923077","804.2435897435897","804.2435897435897","black","no","xpyriment","legacy","legacy","0","207","NA","uniform","NA","NA","NA","1","undefined","1","0","77","77","77","0","77","77","77","NA","0","77","NA","NA","0","77","NA","77","0","77","NA","NA","NA","77","0","0","NA","NA","77","77","77","77","77","78","/","Thu Nov 30 09:25:03 2023","Executes Python code","yes","m21-ba-lexicalDecision.osexp","C:\Users\ekealey\Desktop","no","mono","no","18","no","white","no","yes","1080","legacy","77","77","C:/Users/ekealey/Desktop/subject-230.csv","xpyriment","Lentiform Loewenfeld","3.3.11","0","/","space","NA","NA","NA","space","/","1012","20595","NA","NA","NA","36317","1012","2","legacy","1024","2","48000","-16","AB_m21","230","even","FILL_W","BRASS","1732","398820","395135","397316","38211","365318","NA","NA","NA","NA","395636","NA","NA","NA","394632","NA","394607","1893","399021","NA","NA","NA","395677","1732","1882","NA","NA","396689","396713","394607","395636","395657","morph21_Oliver/Morris","63","62731","78","yes","1920","10"
"200","","81.0126582278481","81.0126582278481","802.9620253164557","802.9620253164557","black","no","xpyriment","legacy","legacy","0","201","NA","uniform","NA","NA","NA","1","undefined","1","0","78","78","78","0","78","78","78","NA","0","78","NA","NA","0","78","NA","78","0","78","NA","NA","NA","78","0","0","NA","NA","78","78","78","78","78","79","/","Thu Nov 30 09:25:03 2023","Executes Python code","yes","m21-ba-lexicalDecision.osexp","C:\Users\ekealey\Desktop","no","mono","no","18","no","white","no","yes","1080","legacy","78","78","C:/Users/ekealey/Desktop/subject-230.csv","xpyriment","Lentiform Loewenfeld","3.3.11","0","/","space","NA","NA","NA","space","/","703","20595","NA","NA","NA","36317","703","2","legacy","1024","2","48000","-16","AB_m21","230","even","CW_S","LOCALLY","1732","402485","400613","397316","38211","365318","NA","NA","NA","NA","401114","NA","NA","NA","400113","NA","400086","1893","402685","NA","NA","NA","401154","1732","1882","NA","NA","401857","401882","400085","401114","401134","morph21_Oliver/Morris","64","63434","79","yes","1920","37"
"350","","81.25","81.25","802.5375","802.5375","black","no","xpyriment","legacy","legacy","0","206","NA","uniform","NA","NA","NA","1","undefined","1","0","79","79","79","0","79","79","79","NA","0","79","NA","NA","0","79","NA","79","0","79","NA","NA","NA","79","0","0","NA","NA","79","79","79","79","79","80","z","Thu Nov 30 09:25:03 2023","Executes Python code","yes","m21-ba-lexicalDecision.osexp","C:\Users\ekealey\Desktop","no","mono","no","18","no","white","no","yes","1080","legacy","79","79","C:/Users/ekealey/Desktop/subject-230.csv","xpyriment","Lentiform Loewenfeld","3.3.11","0","z","space","NA","NA","NA","space","z","769","20595","NA","NA","NA","36317","769","2","legacy","1024","2","48000","-16","AB_m21","230","even","NW_L_SIMP","HABITIC","1732","406188","404251","397316","38211","365318","NA","NA","NA","NA","404752","NA","NA","NA","403749","NA","403720","1893","406538","NA","NA","NA","404792","1732","1882","NA","NA","405561","405585","403720","404751","404772","morph21_Oliver/Morris","65","64203","80","yes","1920","7"
"200","","80.24691358024691","80.24691358024691","807.4444444444445","807.4444444444445","black","no","xpyriment","legacy","legacy","0","208","NA","uniform","NA","NA","NA","0","undefined","0","0","80","80","80","0","80","80","80","NA","0","80","NA","NA","0","80","NA","80","0","80","NA","NA","NA","80","0","0","NA","NA","80","80","80","80","80","81","z","Thu Nov 30 09:25:03 2023","Executes Python code","yes","m21-ba-lexicalDecision.osexp","C:\Users\ekealey\Desktop","no","mono","no","18","no","white","no","yes","1080","legacy","80","80","C:/Users/ekealey/Desktop/subject-230.csv","xpyriment","Lentiform Loewenfeld","3.3.11","0","None","space","NA","NA","NA","space","None","1200","20595","NA","NA","NA","36317","1200","2","legacy","1024","2","48000","-16","AB_m21","230","even","FILL_NW","FALONS","1732","411952","408078","410447","38211","365318","NA","NA","NA","NA","408579","NA","NA","NA","407578","NA","407547","1893","412153","NA","NA","NA","408620","1732","1882","NA","NA","409820","409844","407547","408579","408600","morph21_Oliver/Morris","65","65403","81","yes","1920","19"
"250","","80.48780487804878","80.48780487804878","806.2073170731708","806.2073170731708","black","no","xpyriment","legacy","legacy","0","201","NA","uniform","NA","NA","NA","1","undefined","1","0","81","81","81","0","81","81","81","NA","0","81","NA","NA","0","81","NA","81","0","81","NA","NA","NA","81","0","0","NA","NA","81","81","81","81","81","82","/","Thu Nov 30 09:25:03 2023","Executes Python code","yes","m21-ba-lexicalDecision.osexp","C:\Users\ekealey\Desktop","no","mono","no","18","no","white","no","yes","1080","legacy","81","81","C:/Users/ekealey/Desktop/subject-230.csv","xpyriment","Lentiform Loewenfeld","3.3.11","0","/","space","NA","NA","NA","space","/","706","20595","NA","NA","NA","36317","706","2","legacy","1024","2","48000","-16","AB_m21","230","even","CW_S","MOSSY","1732","415613","413737","410447","38211","365318","NA","NA","NA","NA","414238","NA","NA","NA","413236","NA","413207","1893","415863","NA","NA","NA","414278","1732","1882","NA","NA","414985","415009","413207","414238","414258","morph21_Oliver/Morris","66","66109","82","yes","1920","47"
"350","","80.72289156626506","80.72289156626506","809.289156626506","809.289156626506","black","no","xpyriment","legacy","legacy","0","201","NA","uniform","NA","NA","NA","1","undefined","1","0","82","82","82","0","82","82","82","NA","0","82","NA","NA","0","82","NA","82","0","82","NA","NA","NA","82","0","0","NA","NA","82","82","82","82","82","83","/","Thu Nov 30 09:25:03 2023","Executes Python code","yes","m21-ba-lexicalDecision.osexp","C:\Users\ekealey\Desktop","no","mono","no","18","no","white","no","yes","1080","legacy","82","82","C:/Users/ekealey/Desktop/subject-230.csv","xpyriment","Lentiform Loewenfeld","3.3.11","0","/","space","NA","NA","NA","space","/","1062","20595","NA","NA","NA","36317","1062","2","legacy","1024","2","48000","-16","AB_m21","230","even","CW_S","TOASTER","1732","419696","417461","410447","38211","365318","NA","NA","NA","NA","417963","NA","NA","NA","416959","NA","416931","1893","420046","NA","NA","NA","418003","1732","1882","NA","NA","419066","419090","416931","417962","417983","morph21_Oliver/Morris","67","67171","83","yes","1920","10"
"200","","80.95238095238095","80.95238095238095","808.5595238095239","808.5595238095239","black","no","xpyriment","legacy","legacy","0","208","NA","uniform","NA","NA","NA","1","undefined","1","0","83","83","83","0","83","83","83","NA","0","83","NA","NA","0","83","NA","83","0","83","NA","NA","NA","83","0","0","NA","NA","83","83","83","83","83","84","z","Thu Nov 30 09:25:03 2023","Executes Python code","yes","m21-ba-lexicalDecision.osexp","C:\Users\ekealey\Desktop","no","mono","no","18","no","white","no","yes","1080","legacy","83","83","C:/Users/ekealey/Desktop/subject-230.csv","xpyriment","Lentiform Loewenfeld","3.3.11","0","z","space","NA","NA","NA","space","z","748","20595","NA","NA","NA","36317","748","2","legacy","1024","2","48000","-16","AB_m21","230","even","FILL_NW","SMADE","1732","425030","421608","423526","38211","365318","NA","NA","NA","NA","422108","NA","NA","NA","421108","NA","421080","1893","425230","NA","NA","NA","422149","1732","1882","NA","NA","422898","422922","421080","422108","422129","morph21_Oliver/Morris","68","67919","84","yes","1920","42"
"350","","80","80","813.1647058823529","813.1647058823529","black","no","xpyriment","legacy","legacy","0","206","NA","uniform","NA","NA","NA","0","undefined","0","0","84","84","84","0","84","84","84","NA","0","84","NA","NA","0","84","NA","84","0","84","NA","NA","NA","84","0","0","NA","NA","84","84","84","84","84","85","z","Thu Nov 30 09:25:03 2023","Executes Python code","yes","m21-ba-lexicalDecision.osexp","C:\Users\ekealey\Desktop","no","mono","no","18","no","white","no","yes","1080","legacy","84","84","C:/Users/ekealey/Desktop/subject-230.csv","xpyriment","Lentiform Loewenfeld","3.3.11","0","None","space","NA","NA","NA","space","None","1200","20595","NA","NA","NA","36317","1200","2","legacy","1024","2","48000","-16","AB_m21","230","even","NW_L_SIMP","WITCHISH","1732","429197","426829","423526","38211","365318","NA","NA","NA","NA","427330","NA","NA","NA","426328","NA","426303","1893","429547","NA","NA","NA","427370","1732","1882","NA","NA","428570","428593","426303","427330","427350","morph21_Oliver/Morris","68","69119","85","yes","1920","11"
"350","","80.23255813953489","80.23255813953489","811.3139534883721","811.3139534883721","black","no","xpyriment","legacy","legacy","0","207","NA","uniform","NA","NA","NA","1","undefined","1","0","85","85","85","0","85","85","85","NA","0","85","NA","NA","0","85","NA","85","0","85","NA","NA","NA","85","0","0","NA","NA","85","85","85","85","85","86","/","Thu Nov 30 09:25:03 2023","Executes Python code","yes","m21-ba-lexicalDecision.osexp","C:\Users\ekealey\Desktop","no","mono","no","18","no","white","no","yes","1080","legacy","85","85","C:/Users/ekealey/Desktop/subject-230.csv","xpyriment","Lentiform Loewenfeld","3.3.11","0","/","space","NA","NA","NA","space","/","654","20595","NA","NA","NA","36317","654","2","legacy","1024","2","48000","-16","AB_m21","230","even","FILL_W","LIFT","1732","432947","431125","423526","38211","365318","NA","NA","NA","NA","431625","NA","NA","NA","430625","NA","430595","1893","433298","NA","NA","NA","431666","1732","1882","NA","NA","432321","432344","430595","431625","431646","morph21_Oliver/Morris","69","69773","86","yes","1920","39"
"200","","80.45977011494253","80.45977011494253","811.0689655172414","811.0689655172414","black","no","xpyriment","legacy","legacy","0","201","NA","uniform","NA","NA","NA","1","undefined","1","0","86","86","86","0","86","86","86","NA","0","86","NA","NA","0","86","NA","86","0","86","NA","NA","NA","86","0","0","NA","NA","86","86","86","86","86","87","/","Thu Nov 30 09:25:03 2023","Executes Python code","yes","m21-ba-lexicalDecision.osexp","C:\Users\ekealey\Desktop","no","mono","no","18","no","white","no","yes","1080","legacy","86","86","C:/Users/ekealey/Desktop/subject-230.csv","xpyriment","Lentiform Loewenfeld","3.3.11","0","/","space","NA","NA","NA","space","/","790","20595","NA","NA","NA","36317","790","2","legacy","1024","2","48000","-16","AB_m21","230","even","CW_S","LISTENER","1732","438311","434844","436807","38211","365318","NA","NA","NA","NA","435345","NA","NA","NA","434344","NA","434314","1893","438511","NA","NA","NA","435387","1732","1882","NA","NA","436178","436203","434314","435345","435366","morph21_Oliver/Morris","70","70563","87","yes","1920","18"
"250","","80.68181818181819","80.68181818181819","810.6136363636364","810.6136363636364","black","no","xpyriment","legacy","legacy","0","201","NA","uniform","NA","NA","NA","1","undefined","1","0","87","87","87","0","87","87","87","NA","0","87","NA","NA","0","87","NA","87","0","87","NA","NA","NA","87","0","0","NA","NA","87","87","87","87","87","88","/","Thu Nov 30 09:25:03 2023","Executes Python code","yes","m21-ba-lexicalDecision.osexp","C:\Users\ekealey\Desktop","no","mono","no","18","no","white","no","yes","1080","legacy","87","87","C:/Users/ekealey/Desktop/subject-230.csv","xpyriment","Lentiform Loewenfeld","3.3.11","0","/","space","NA","NA","NA","space","/","771","20595","NA","NA","NA","36317","771","2","legacy","1024","2","48000","-16","AB_m21","230","even","CW_S","HUGELY","1732","442029","440088","436807","38211","365318","NA","NA","NA","NA","440589","NA","NA","NA","439588","NA","439561","1893","442279","NA","NA","NA","440630","1732","1882","NA","NA","441402","441426","439561","440589","440610","morph21_Oliver/Morris","71","71334","88","yes","1920","35"
"300","","80.89887640449439","80.89887640449439","814.4494382022472","814.4494382022472","black","no","xpyriment","legacy","legacy","0","205","NA","uniform","NA","NA","NA","1","undefined","1","0","88","88","88","0","88","88","88","NA","0","88","NA","NA","0","88","NA","88","0","88","NA","NA","NA","88","0","0","NA","NA","88","88","88","88","88","89","z","Thu Nov 30 09:25:03 2023","Executes Python code","yes","m21-ba-lexicalDecision.osexp","C:\Users\ekealey\Desktop","no","mono","no","18","no","white","no","yes","1080","legacy","88","88","C:/Users/ekealey/Desktop/subject-230.csv","xpyriment","Lentiform Loewenfeld","3.3.11","0","z","space","NA","NA","NA","space","z","1152","20595","NA","NA","NA","36317","1152","2","legacy","1024","2","48000","-16","AB_m21","230","even","NW_S_SIMP","YIELDIST","1732","446157","443835","436807","38211","365318","NA","NA","NA","NA","444337","NA","NA","NA","443334","NA","443307","1893","446458","NA","NA","NA","444377","1732","1882","NA","NA","445530","445554","443307","444337","444357","morph21_Oliver/Morris","72","72486","89","yes","1920","20"
"400","","81.11111111111111","81.11111111111111","810.8444444444444","810.8444444444444","black","no","xpyriment","legacy","legacy","0","202","NA","uniform","NA","NA","NA","1","undefined","1","0","89","89","89","0","89","89","89","NA","0","89","NA","NA","0","89","NA","89","0","89","NA","NA","NA","89","0","0","NA","NA","89","89","89","89","89","90","/","Thu Nov 30 09:25:03 2023","Executes Python code","yes","m21-ba-lexicalDecision.osexp","C:\Users\ekealey\Desktop","no","mono","no","18","no","white","no","yes","1080","legacy","89","89","C:/Users/ekealey/Desktop/subject-230.csv","xpyriment","Lentiform Loewenfeld","3.3.11","0","/","space","NA","NA","NA","space","/","490","20595","NA","NA","NA","36317","490","2","legacy","1024","2","48000","-16","AB_m21","230","even","CW_L","LOCKER","1732","451173","448008","449670","38211","365318","NA","NA","NA","NA","448509","NA","NA","NA","447506","NA","447480","1893","451573","NA","NA","NA","448550","1732","1882","NA","NA","449041","449066","447480","448509","448530","morph21_Oliver/Morris","73","72976","90","yes","1920","8"
"300","","81.31868131868131","81.31868131868131","811.7032967032967","811.7032967032967","black","no","xpyriment","legacy","legacy","0","208","NA","uniform","NA","NA","NA","1","undefined","1","0","90","90","90","0","90","90","90","NA","0","90","NA","NA","0","90","NA","90","0","90","NA","NA","NA","90","0","0","NA","NA","90","90","90","90","90","91","z","Thu Nov 30 09:25:03 2023","Executes Python code","yes","m21-ba-lexicalDecision.osexp","C:\Users\ekealey\Desktop","no","mono","no","18","no","white","no","yes","1080","legacy","90","90","C:/Users/ekealey/Desktop/subject-230.csv","xpyriment","Lentiform Loewenfeld","3.3.11","0","z","space","NA","NA","NA","space","z","889","20595","NA","NA","NA","36317","889","2","legacy","1024","2","48000","-16","AB_m21","230","even","FILL_NW","SCURE","1732","455212","453153","449670","38211","365318","NA","NA","NA","NA","453653","NA","NA","NA","452653","NA","452624","1893","455512","NA","NA","NA","453695","1732","1882","NA","NA","454585","454608","452623","453653","453675","morph21_Oliver/Morris","74","73865","91","yes","1920","41"
"200","","81.52173913043478","81.52173913043478","808.7391304347826","808.7391304347826","black","no","xpyriment","legacy","legacy","0","207","NA","uniform","NA","NA","NA","1","undefined","1","0","91","91","91","0","91","91","91","NA","0","91","NA","NA","0","91","NA","91","0","91","NA","NA","NA","91","0","0","NA","NA","91","91","91","91","91","92","/","Thu Nov 30 09:25:03 2023","Executes Python code","yes","m21-ba-lexicalDecision.osexp","C:\Users\ekealey\Desktop","no","mono","no","18","no","white","no","yes","1080","legacy","91","91","C:/Users/ekealey/Desktop/subject-230.csv","xpyriment","Lentiform Loewenfeld","3.3.11","0","/","space","NA","NA","NA","space","/","539","20595","NA","NA","NA","36317","539","2","legacy","1024","2","48000","-16","AB_m21","230","even","FILL_W","STALK","1732","458799","457087","449670","38211","365318","NA","NA","NA","NA","457588","NA","NA","NA","456586","NA","456557","1893","459000","NA","NA","NA","457629","1732","1882","NA","NA","458169","458194","456557","457588","457609","morph21_Oliver/Morris","75","74404","92","yes","1920","27"
