"ITI","_prepare","acc","accuracy","average_response_time","avg_rt","background","bidi","canvas_backend","clock_backend","color_backend","compensation","cond_trig","condtrigtime","coordinates","coroutines_cycles","coroutines_duration","coroutines_mean_cycle_duration","correct","correct_instructions_1","correct_new_keyboard_response_1","count_AB_m21","count_ITI","count_blank_screen","count_blink_screen","count_block1","count_break1","count_break2","count_break3_1","count_canvas","count_close_port","count_cond_trigger","count_correct_trigger","count_def_chain","count_end_screen","count_fixation_1","count_getting_started","count_inc_counter","count_instructions_1","count_logger","count_logscript","count_new_inline_script","count_new_inline_script_2","count_new_keyboard_response_1","count_open_port","count_reset_counter_prep","count_reset_counter_run","count_reset_counter_run_1","count_response_trigger_trial","count_responsescreen","count_sequence","count_target_present","count_word_trigger","counter","cresp","datetime","description","disable_garbage_collection","experiment_file","experiment_path","font_bold","font_family","font_italic","font_size","font_underline","foreground","form_clicks","fullscreen","height","keyboard_backend","live_row","live_row_block1","logfile","mouse_backend","opensesame_codename","opensesame_version","repeat_cycle","response","response_break1","response_break2","response_break3_1","response_end_screen","response_instructions_1","response_new_keyboard_response_1","response_time","response_time_break1","response_time_break2","response_time_break3_1","response_time_end_screen","response_time_instructions_1","response_time_new_keyboard_response_1","round_decimals","sampler_backend","sound_buf_size","sound_channels","sound_freq","sound_sample_size","start","subject_nr","subject_parity","targ_type","target","time_AB_m21","time_ITI","time_blank_screen","time_blink_screen","time_block1","time_break1","time_break2","time_break3_1","time_canvas","time_close_port","time_cond_trigger","time_correct_trigger","time_def_chain","time_end_screen","time_fixation_1","time_getting_started","time_inc_counter","time_instructions_1","time_logger","time_logscript","time_new_inline_script","time_new_inline_script_2","time_new_keyboard_response_1","time_open_port","time_reset_counter_prep","time_reset_counter_run","time_reset_counter_run_1","time_response_trigger_trial","time_responsescreen","time_sequence","time_target_present","time_word_trigger","title","total_correct","total_response_time","total_responses","uniform_coordinates","width","word_trig"
"350","","0","0","1200","1200","black","no","xpyriment","legacy","legacy","0","208","NA","uniform","NA","NA","NA","0","undefined","0","0","0","0","0","0","0","0","0","NA","0","0","NA","NA","0","0","NA","0","0","0","NA","NA","NA","0","0","0","NA","NA","0","0","0","0","0","1","z","Thu Jun 15 13:26:33 2023","Executes Python code","yes","m21-ba-lexicalDecision.osexp","C:\Users\emoore8\Desktop\m21_vsl-main","no","mono","no","18","no","white","no","yes","1080","legacy","0","0","C:/Users/emoore8/Desktop/m21_vsl-main/subject-206.csv","xpyriment","Lentiform Loewenfeld","3.3.11","0","None","NA","NA","NA","NA","space","None","1200","NA","NA","NA","NA","28761","1200","2","legacy","1024","2","48000","-16","AB_m21","206","even","FILL_NW","DOADS","1547","34613","32246","NA","30474","NA","NA","NA","NA","NA","32747","NA","NA","NA","31745","NA","31711","1712","34964","NA","NA","NA","32787","1547","1699","NA","NA","33987","34010","31711","32747","32767","morph21_Oliver/Morris","0","1200","1","yes","1920","15"
"350","","50","50","1095.5","1095.5","black","no","xpyriment","legacy","legacy","0","208","NA","uniform","NA","NA","NA","1","undefined","1","0","1","1","1","0","1","1","1","NA","0","1","NA","NA","0","1","NA","1","0","1","NA","NA","NA","1","0","0","NA","NA","1","1","1","1","1","2","z","Thu Jun 15 13:26:33 2023","Executes Python code","yes","m21-ba-lexicalDecision.osexp","C:\Users\emoore8\Desktop\m21_vsl-main","no","mono","no","18","no","white","no","yes","1080","legacy","1","1","C:/Users/emoore8/Desktop/m21_vsl-main/subject-206.csv","xpyriment","Lentiform Loewenfeld","3.3.11","0","z","NA","NA","NA","NA","space","z","991","NA","NA","NA","NA","28761","991","2","legacy","1024","2","48000","-16","AB_m21","206","even","FILL_NW","JADS","1547","38645","36486","NA","30474","NA","NA","NA","NA","NA","36986","NA","NA","NA","35985","NA","35958","1712","38995","NA","NA","NA","37027","1547","1699","NA","NA","38018","38042","35958","36986","37007","morph21_Oliver/Morris","1","2191","2","yes","1920","31"
"350","","33.333333333333336","33.333333333333336","1130.3333333333333","1130.3333333333333","black","no","xpyriment","legacy","legacy","0","204","NA","uniform","NA","NA","NA","0","undefined","0","0","2","2","2","0","2","2","2","NA","0","2","NA","NA","0","2","NA","2","0","2","NA","NA","NA","2","0","0","NA","NA","2","2","2","2","2","3","z","Thu Jun 15 13:26:33 2023","Executes Python code","yes","m21-ba-lexicalDecision.osexp","C:\Users\emoore8\Desktop\m21_vsl-main","no","mono","no","18","no","white","no","yes","1080","legacy","2","2","C:/Users/emoore8/Desktop/m21_vsl-main/subject-206.csv","xpyriment","Lentiform Loewenfeld","3.3.11","0","None","NA","NA","NA","NA","space","None","1200","NA","NA","NA","NA","28761","1200","2","legacy","1024","2","48000","-16","AB_m21","206","even","NW_L_COMP","INKILM","1547","44395","40522","42889","30474","NA","NA","NA","NA","NA","41022","NA","NA","NA","40022","NA","39994","1712","44745","NA","NA","NA","41063","1547","1699","NA","NA","42263","42286","39994","41022","41043","morph21_Oliver/Morris","1","3391","3","yes","1920","8"
"350","","25","25","1147.75","1147.75","black","no","xpyriment","legacy","legacy","0","203","NA","uniform","NA","NA","NA","0","undefined","0","0","3","3","3","0","3","3","3","NA","0","3","NA","NA","0","3","NA","3","0","3","NA","NA","NA","3","0","0","NA","NA","3","3","3","3","3","4","z","Thu Jun 15 13:26:33 2023","Executes Python code","yes","m21-ba-lexicalDecision.osexp","C:\Users\emoore8\Desktop\m21_vsl-main","no","mono","no","18","no","white","no","yes","1080","legacy","3","3","C:/Users/emoore8/Desktop/m21_vsl-main/subject-206.csv","xpyriment","Lentiform Loewenfeld","3.3.11","0","None","NA","NA","NA","NA","space","None","1200","NA","NA","NA","NA","28761","1200","2","legacy","1024","2","48000","-16","AB_m21","206","even","NW_S_COMP","WELDIG","1547","48621","46254","42889","30474","NA","NA","NA","NA","NA","46754","NA","NA","NA","45754","NA","45726","1712","48971","NA","NA","NA","46795","1547","1699","NA","NA","47995","48018","45726","46754","46775","morph21_Oliver/Morris","1","4591","4","yes","1920","21"
"300","","40","40","1113.4","1113.4","black","no","xpyriment","legacy","legacy","0","207","NA","uniform","NA","NA","NA","1","undefined","1","0","4","4","4","0","4","4","4","NA","0","4","NA","NA","0","4","NA","4","0","4","NA","NA","NA","4","0","0","NA","NA","4","4","4","4","4","5","/","Thu Jun 15 13:26:33 2023","Executes Python code","yes","m21-ba-lexicalDecision.osexp","C:\Users\emoore8\Desktop\m21_vsl-main","no","mono","no","18","no","white","no","yes","1080","legacy","4","4","C:/Users/emoore8/Desktop/m21_vsl-main/subject-206.csv","xpyriment","Lentiform Loewenfeld","3.3.11","0","/","NA","NA","NA","NA","space","/","976","NA","NA","NA","NA","28761","976","2","legacy","1024","2","48000","-16","AB_m21","206","even","FILL_W","MOURN","1547","52622","50478","42889","30474","NA","NA","NA","NA","NA","50978","NA","NA","NA","49978","NA","49952","1712","52922","NA","NA","NA","51018","1547","1699","NA","NA","51994","52018","49951","50978","50998","morph21_Oliver/Morris","2","5567","5","yes","1920","26"
"400","","50","50","1064.1666666666667","1064.1666666666667","black","no","xpyriment","legacy","legacy","0","204","NA","uniform","NA","NA","NA","1","undefined","1","0","5","5","5","0","5","5","5","NA","0","5","NA","NA","0","5","NA","5","0","5","NA","NA","NA","5","0","0","NA","NA","5","5","5","5","5","6","z","Thu Jun 15 13:26:33 2023","Executes Python code","yes","m21-ba-lexicalDecision.osexp","C:\Users\emoore8\Desktop\m21_vsl-main","no","mono","no","18","no","white","no","yes","1080","legacy","5","5","C:/Users/emoore8/Desktop/m21_vsl-main/subject-206.csv","xpyriment","Lentiform Loewenfeld","3.3.11","0","z","NA","NA","NA","NA","space","z","818","NA","NA","NA","NA","28761","818","2","legacy","1024","2","48000","-16","AB_m21","206","even","NW_L_COMP","COLDIDY","1547","57925","54434","56421","30474","NA","NA","NA","NA","NA","54935","NA","NA","NA","53933","NA","53908","1712","58326","NA","NA","NA","54976","1547","1699","NA","NA","55794","55818","53908","54935","54956","morph21_Oliver/Morris","3","6385","6","yes","1920","10"
"250","","57.142857142857146","57.142857142857146","1043.5714285714287","1043.5714285714287","black","no","xpyriment","legacy","legacy","0","204","NA","uniform","NA","NA","NA","1","undefined","1","0","6","6","6","0","6","6","6","NA","0","6","NA","NA","0","6","NA","6","0","6","NA","NA","NA","6","0","0","NA","NA","6","6","6","6","6","7","z","Thu Jun 15 13:26:33 2023","Executes Python code","yes","m21-ba-lexicalDecision.osexp","C:\Users\emoore8\Desktop\m21_vsl-main","no","mono","no","18","no","white","no","yes","1080","legacy","6","6","C:/Users/emoore8/Desktop/m21_vsl-main/subject-206.csv","xpyriment","Lentiform Loewenfeld","3.3.11","0","z","NA","NA","NA","NA","space","z","920","NA","NA","NA","NA","28761","920","2","legacy","1024","2","48000","-16","AB_m21","206","even","NW_L_COMP","FREENELS","1547","61957","59866","56421","30474","NA","NA","NA","NA","NA","60368","NA","NA","NA","59365","NA","59342","1712","62207","NA","NA","NA","60409","1547","1699","NA","NA","61330","61354","59342","60368","60389","morph21_Oliver/Morris","4","7305","7","yes","1920","15"
"200","","50","50","1063.125","1063.125","black","no","xpyriment","legacy","legacy","0","205","NA","uniform","NA","NA","NA","0","undefined","0","0","7","7","7","0","7","7","7","NA","0","7","NA","NA","0","7","NA","7","0","7","NA","NA","NA","7","0","0","NA","NA","7","7","7","7","7","8","z","Thu Jun 15 13:26:33 2023","Executes Python code","yes","m21-ba-lexicalDecision.osexp","C:\Users\emoore8\Desktop\m21_vsl-main","no","mono","no","18","no","white","no","yes","1080","legacy","7","7","C:/Users/emoore8/Desktop/m21_vsl-main/subject-206.csv","xpyriment","Lentiform Loewenfeld","3.3.11","0","None","NA","NA","NA","NA","space","None","1200","NA","NA","NA","NA","28761","1200","2","legacy","1024","2","48000","-16","AB_m21","206","even","NW_S_SIMP","GUMFUL","1547","66079","63713","56421","30474","NA","NA","NA","NA","NA","64213","NA","NA","NA","63213","NA","63187","1712","66279","NA","NA","NA","64253","1547","1699","NA","NA","65453","65476","63187","64213","64233","morph21_Oliver/Morris","4","8505","8","yes","1920","2"
"300","","44.44444444444444","44.44444444444444","1078.3333333333333","1078.3333333333333","black","no","xpyriment","legacy","legacy","0","206","NA","uniform","NA","NA","NA","0","undefined","0","0","8","8","8","0","8","8","8","NA","0","8","NA","NA","0","8","NA","8","0","8","NA","NA","NA","8","0","0","NA","NA","8","8","8","8","8","9","z","Thu Jun 15 13:26:33 2023","Executes Python code","yes","m21-ba-lexicalDecision.osexp","C:\Users\emoore8\Desktop\m21_vsl-main","no","mono","no","18","no","white","no","yes","1080","legacy","8","8","C:/Users/emoore8/Desktop/m21_vsl-main/subject-206.csv","xpyriment","Lentiform Loewenfeld","3.3.11","0","None","NA","NA","NA","NA","space","None","1200","NA","NA","NA","NA","28761","1200","2","legacy","1024","2","48000","-16","AB_m21","206","even","NW_L_SIMP","BEANISH","1547","71668","67794","70162","30474","NA","NA","NA","NA","NA","68296","NA","NA","NA","67293","NA","67270","1712","71968","NA","NA","NA","68336","1547","1699","NA","NA","69536","69559","67270","68296","68316","morph21_Oliver/Morris","4","9705","9","yes","1920","8"
"400","","50","50","1028.1","1028.1","black","no","xpyriment","legacy","legacy","0","207","NA","uniform","NA","NA","NA","1","undefined","1","0","9","9","9","0","9","9","9","NA","0","9","NA","NA","0","9","NA","9","0","9","NA","NA","NA","9","0","0","NA","NA","9","9","9","9","9","10","/","Thu Jun 15 13:26:33 2023","Executes Python code","yes","m21-ba-lexicalDecision.osexp","C:\Users\emoore8\Desktop\m21_vsl-main","no","mono","no","18","no","white","no","yes","1080","legacy","9","9","C:/Users/emoore8/Desktop/m21_vsl-main/subject-206.csv","xpyriment","Lentiform Loewenfeld","3.3.11","0","/","NA","NA","NA","NA","space","/","576","NA","NA","NA","NA","28761","576","2","legacy","1024","2","48000","-16","AB_m21","206","even","FILL_W","FLIRT","1547","75253","73508","70162","30474","NA","NA","NA","NA","NA","74008","NA","NA","NA","73007","NA","72982","1712","75653","NA","NA","NA","74050","1547","1699","NA","NA","74626","74650","72982","74008","74030","morph21_Oliver/Morris","5","10281","10","yes","1920","1"
"300","","54.54545454545455","54.54545454545455","1003.4545454545455","1003.4545454545455","black","no","xpyriment","legacy","legacy","0","202","NA","uniform","NA","NA","NA","1","undefined","1","0","10","10","10","0","10","10","10","NA","0","10","NA","NA","0","10","NA","10","0","10","NA","NA","NA","10","0","0","NA","NA","10","10","10","10","10","11","/","Thu Jun 15 13:26:33 2023","Executes Python code","yes","m21-ba-lexicalDecision.osexp","C:\Users\emoore8\Desktop\m21_vsl-main","no","mono","no","18","no","white","no","yes","1080","legacy","10","10","C:/Users/emoore8/Desktop/m21_vsl-main/subject-206.csv","xpyriment","Lentiform Loewenfeld","3.3.11","0","/","NA","NA","NA","NA","space","/","757","NA","NA","NA","NA","28761","757","2","legacy","1024","2","48000","-16","AB_m21","206","even","CW_L","DOUBTFUL","1547","79084","77159","70162","30474","NA","NA","NA","NA","NA","77659","NA","NA","NA","76659","NA","76635","1712","79384","NA","NA","NA","77700","1547","1699","NA","NA","78458","78481","76635","77659","77680","morph21_Oliver/Morris","6","11038","11","yes","1920","21"
"250","","58.333333333333336","58.333333333333336","983","983","black","no","xpyriment","legacy","legacy","0","201","NA","uniform","NA","NA","NA","1","undefined","1","0","11","11","11","0","11","11","11","NA","0","11","NA","NA","0","11","NA","11","0","11","NA","NA","NA","11","0","0","NA","NA","11","11","11","11","11","12","/","Thu Jun 15 13:26:33 2023","Executes Python code","yes","m21-ba-lexicalDecision.osexp","C:\Users\emoore8\Desktop\m21_vsl-main","no","mono","no","18","no","white","no","yes","1080","legacy","11","11","C:/Users/emoore8/Desktop/m21_vsl-main/subject-206.csv","xpyriment","Lentiform Loewenfeld","3.3.11","0","/","NA","NA","NA","NA","space","/","758","NA","NA","NA","NA","28761","758","2","legacy","1024","2","48000","-16","AB_m21","206","even","CW_S","MILDNESS","1547","84325","80895","82821","30474","NA","NA","NA","NA","NA","81395","NA","NA","NA","80395","NA","80371","1712","84575","NA","NA","NA","81436","1547","1699","NA","NA","82195","82218","80371","81395","81416","morph21_Oliver/Morris","7","11796","12","yes","1920","42"
"250","","61.53846153846154","61.53846153846154","952.2307692307693","952.2307692307693","black","no","xpyriment","legacy","legacy","0","201","NA","uniform","NA","NA","NA","1","undefined","1","0","12","12","12","0","12","12","12","NA","0","12","NA","NA","0","12","NA","12","0","12","NA","NA","NA","12","0","0","NA","NA","12","12","12","12","12","13","/","Thu Jun 15 13:26:33 2023","Executes Python code","yes","m21-ba-lexicalDecision.osexp","C:\Users\emoore8\Desktop\m21_vsl-main","no","mono","no","18","no","white","no","yes","1080","legacy","12","12","C:/Users/emoore8/Desktop/m21_vsl-main/subject-206.csv","xpyriment","Lentiform Loewenfeld","3.3.11","0","/","NA","NA","NA","NA","space","/","583","NA","NA","NA","NA","28761","583","2","legacy","1024","2","48000","-16","AB_m21","206","even","CW_S","COSTLY","1547","87830","86077","82821","30474","NA","NA","NA","NA","NA","86579","NA","NA","NA","85576","NA","85549","1712","88080","NA","NA","NA","86619","1547","1699","NA","NA","87202","87225","85549","86579","86599","morph21_Oliver/Morris","8","12379","13","yes","1920","36"
"250","","57.142857142857146","57.142857142857146","969.9285714285714","969.9285714285714","black","no","xpyriment","legacy","legacy","0","205","NA","uniform","NA","NA","NA","0","undefined","0","0","13","13","13","0","13","13","13","NA","0","13","NA","NA","0","13","NA","13","0","13","NA","NA","NA","13","0","0","NA","NA","13","13","13","13","13","14","z","Thu Jun 15 13:26:33 2023","Executes Python code","yes","m21-ba-lexicalDecision.osexp","C:\Users\emoore8\Desktop\m21_vsl-main","no","mono","no","18","no","white","no","yes","1080","legacy","13","13","C:/Users/emoore8/Desktop/m21_vsl-main/subject-206.csv","xpyriment","Lentiform Loewenfeld","3.3.11","0","None","NA","NA","NA","NA","space","None","1200","NA","NA","NA","NA","28761","1200","2","legacy","1024","2","48000","-16","AB_m21","206","even","NW_S_SIMP","ZOOMFUL","1547","91964","89596","82821","30474","NA","NA","NA","NA","NA","90096","NA","NA","NA","89096","NA","89071","1712","92214","NA","NA","NA","90137","1547","1699","NA","NA","91337","91360","89071","90096","90117","morph21_Oliver/Morris","8","13579","14","yes","1920","19"
"200","","53.333333333333336","53.333333333333336","985.2666666666667","985.2666666666667","black","no","xpyriment","legacy","legacy","0","201","NA","uniform","NA","NA","NA","0","undefined","0","0","14","14","14","0","14","14","14","NA","0","14","NA","NA","0","14","NA","14","0","14","NA","NA","NA","14","0","0","NA","NA","14","14","14","14","14","15","/","Thu Jun 15 13:26:33 2023","Executes Python code","yes","m21-ba-lexicalDecision.osexp","C:\Users\emoore8\Desktop\m21_vsl-main","no","mono","no","18","no","white","no","yes","1080","legacy","14","14","C:/Users/emoore8/Desktop/m21_vsl-main/subject-206.csv","xpyriment","Lentiform Loewenfeld","3.3.11","0","None","NA","NA","NA","NA","space","None","1200","NA","NA","NA","NA","28761","1200","2","legacy","1024","2","48000","-16","AB_m21","206","even","CW_S","THRUSTER","1547","97585","93715","96081","30474","NA","NA","NA","NA","NA","94215","NA","NA","NA","93215","NA","93189","1712","97785","NA","NA","NA","94255","1547","1699","NA","NA","95455","95478","93189","94215","94235","morph21_Oliver/Morris","8","14779","15","yes","1920","24"
"300","","56.25","56.25","981.375","981.375","black","no","xpyriment","legacy","legacy","0","205","NA","uniform","NA","NA","NA","1","undefined","1","0","15","15","15","0","15","15","15","NA","0","15","NA","NA","0","15","NA","15","0","15","NA","NA","NA","15","0","0","NA","NA","15","15","15","15","15","16","z","Thu Jun 15 13:26:33 2023","Executes Python code","yes","m21-ba-lexicalDecision.osexp","C:\Users\emoore8\Desktop\m21_vsl-main","no","mono","no","18","no","white","no","yes","1080","legacy","15","15","C:/Users/emoore8/Desktop/m21_vsl-main/subject-206.csv","xpyriment","Lentiform Loewenfeld","3.3.11","0","z","NA","NA","NA","NA","space","z","923","NA","NA","NA","NA","28761","923","2","legacy","1024","2","48000","-16","AB_m21","206","even","NW_S_SIMP","YIELDIST","1547","101382","99290","96081","30474","NA","NA","NA","NA","NA","99791","NA","NA","NA","98789","NA","98763","1712","101682","NA","NA","NA","99831","1547","1699","NA","NA","100755","100779","98763","99791","99811","morph21_Oliver/Morris","9","15702","16","yes","1920","20"
"250","","58.8235294117647","58.8235294117647","975.2941176470588","975.2941176470588","black","no","xpyriment","legacy","legacy","0","202","NA","uniform","NA","NA","NA","1","undefined","1","0","16","16","16","0","16","16","16","NA","0","16","NA","NA","0","16","NA","16","0","16","NA","NA","NA","16","0","0","NA","NA","16","16","16","16","16","17","/","Thu Jun 15 13:26:33 2023","Executes Python code","yes","m21-ba-lexicalDecision.osexp","C:\Users\emoore8\Desktop\m21_vsl-main","no","mono","no","18","no","white","no","yes","1080","legacy","16","16","C:/Users/emoore8/Desktop/m21_vsl-main/subject-206.csv","xpyriment","Lentiform Loewenfeld","3.3.11","0","/","NA","NA","NA","NA","space","/","878","NA","NA","NA","NA","28761","878","2","legacy","1024","2","48000","-16","AB_m21","206","even","CW_L","DANCER","1547","105230","103184","96081","30474","NA","NA","NA","NA","NA","103684","NA","NA","NA","102683","NA","102655","1712","105480","NA","NA","NA","103724","1547","1699","NA","NA","104603","104625","102655","103684","103704","morph21_Oliver/Morris","10","16580","17","yes","1920","11"
"200","","61.111111111111114","61.111111111111114","980.5555555555555","980.5555555555555","black","no","xpyriment","legacy","legacy","0","205","NA","uniform","NA","NA","NA","1","undefined","1","0","17","17","17","0","17","17","17","NA","0","17","NA","NA","0","17","NA","17","0","17","NA","NA","NA","17","0","0","NA","NA","17","17","17","17","17","18","z","Thu Jun 15 13:26:33 2023","Executes Python code","yes","m21-ba-lexicalDecision.osexp","C:\Users\emoore8\Desktop\m21_vsl-main","no","mono","no","18","no","white","no","yes","1080","legacy","17","17","C:/Users/emoore8/Desktop/m21_vsl-main/subject-206.csv","xpyriment","Lentiform Loewenfeld","3.3.11","0","z","NA","NA","NA","NA","space","z","1070","NA","NA","NA","NA","28761","1070","2","legacy","1024","2","48000","-16","AB_m21","206","even","NW_S_SIMP","JAWLY","1547","110745","106998","109240","30474","NA","NA","NA","NA","NA","107499","NA","NA","NA","106498","NA","106474","1712","110945","NA","NA","NA","107540","1547","1699","NA","NA","108610","108635","106474","107499","107520","morph21_Oliver/Morris","11","17650","18","yes","1920","7"
"250","","63.1578947368421","63.1578947368421","976.6315789473684","976.6315789473684","black","no","xpyriment","legacy","legacy","0","201","NA","uniform","NA","NA","NA","1","undefined","1","0","18","18","18","0","18","18","18","NA","0","18","NA","NA","0","18","NA","18","0","18","NA","NA","NA","18","0","0","NA","NA","18","18","18","18","18","19","/","Thu Jun 15 13:26:33 2023","Executes Python code","yes","m21-ba-lexicalDecision.osexp","C:\Users\emoore8\Desktop\m21_vsl-main","no","mono","no","18","no","white","no","yes","1080","legacy","18","18","C:/Users/emoore8/Desktop/m21_vsl-main/subject-206.csv","xpyriment","Lentiform Loewenfeld","3.3.11","0","/","NA","NA","NA","NA","space","/","906","NA","NA","NA","NA","28761","906","2","legacy","1024","2","48000","-16","AB_m21","206","even","CW_S","HARMLESS","1547","114536","112460","109240","30474","NA","NA","NA","NA","NA","112960","NA","NA","NA","111959","NA","111935","1712","114786","NA","NA","NA","113000","1547","1699","NA","NA","113906","113931","111935","112960","112980","morph21_Oliver/Morris","12","18556","19","yes","1920","29"
"250","","65","65","963","963","black","no","xpyriment","legacy","legacy","0","201","NA","uniform","NA","NA","NA","1","undefined","1","0","19","19","19","0","19","19","19","NA","0","19","NA","NA","0","19","NA","19","0","19","NA","NA","NA","19","0","0","NA","NA","19","19","19","19","19","20","/","Thu Jun 15 13:26:33 2023","Executes Python code","yes","m21-ba-lexicalDecision.osexp","C:\Users\emoore8\Desktop\m21_vsl-main","no","mono","no","18","no","white","no","yes","1080","legacy","19","19","C:/Users/emoore8/Desktop/m21_vsl-main/subject-206.csv","xpyriment","Lentiform Loewenfeld","3.3.11","0","/","NA","NA","NA","NA","space","/","704","NA","NA","NA","NA","28761","704","2","legacy","1024","2","48000","-16","AB_m21","206","even","CW_S","TOSSING","1547","118181","116310","109240","30474","NA","NA","NA","NA","NA","116810","NA","NA","NA","115810","NA","115783","1712","118431","NA","NA","NA","116850","1547","1699","NA","NA","117554","117578","115783","116810","116830","morph21_Oliver/Morris","13","19260","20","yes","1920","26"
"350","","66.66666666666667","66.66666666666667","947.4285714285714","947.4285714285714","black","no","xpyriment","legacy","legacy","0","208","NA","uniform","NA","NA","NA","1","undefined","1","0","20","20","20","0","20","20","20","NA","0","20","NA","NA","0","20","NA","20","0","20","NA","NA","NA","20","0","0","NA","NA","20","20","20","20","20","21","z","Thu Jun 15 13:26:33 2023","Executes Python code","yes","m21-ba-lexicalDecision.osexp","C:\Users\emoore8\Desktop\m21_vsl-main","no","mono","no","18","no","white","no","yes","1080","legacy","20","20","C:/Users/emoore8/Desktop/m21_vsl-main/subject-206.csv","xpyriment","Lentiform Loewenfeld","3.3.11","0","z","NA","NA","NA","NA","space","z","636","NA","NA","NA","NA","28761","636","2","legacy","1024","2","48000","-16","AB_m21","206","even","FILL_NW","HEAS","1547","123277","119969","121773","30474","NA","NA","NA","NA","NA","120469","NA","NA","NA","119468","NA","119435","1712","123627","NA","NA","NA","120510","1547","1699","NA","NA","121147","121170","119435","120469","120490","morph21_Oliver/Morris","14","19896","21","yes","1920","26"
"250","","68.18181818181819","68.18181818181819","937.2727272727273","937.2727272727273","black","no","xpyriment","legacy","legacy","0","201","NA","uniform","NA","NA","NA","1","undefined","1","0","21","21","21","0","21","21","21","NA","0","21","NA","NA","0","21","NA","21","0","21","NA","NA","NA","21","0","0","NA","NA","21","21","21","21","21","22","/","Thu Jun 15 13:26:33 2023","Executes Python code","yes","m21-ba-lexicalDecision.osexp","C:\Users\emoore8\Desktop\m21_vsl-main","no","mono","no","18","no","white","no","yes","1080","legacy","21","21","C:/Users/emoore8/Desktop/m21_vsl-main/subject-206.csv","xpyriment","Lentiform Loewenfeld","3.3.11","0","/","NA","NA","NA","NA","space","/","724","NA","NA","NA","NA","28761","724","2","legacy","1024","2","48000","-16","AB_m21","206","even","CW_S","PLANNER","1547","127030","125136","121773","30474","NA","NA","NA","NA","NA","125637","NA","NA","NA","124635","NA","124611","1712","127280","NA","NA","NA","125678","1547","1699","NA","NA","126403","126427","124611","125637","125658","morph21_Oliver/Morris","15","20620","22","yes","1920","22"
"200","","69.56521739130434","69.56521739130434","924.0434782608696","924.0434782608696","black","no","xpyriment","legacy","legacy","0","201","NA","uniform","NA","NA","NA","1","undefined","1","0","22","22","22","0","22","22","22","NA","0","22","NA","NA","0","22","NA","22","0","22","NA","NA","NA","22","0","0","NA","NA","22","22","22","22","22","23","/","Thu Jun 15 13:26:33 2023","Executes Python code","yes","m21-ba-lexicalDecision.osexp","C:\Users\emoore8\Desktop\m21_vsl-main","no","mono","no","18","no","white","no","yes","1080","legacy","22","22","C:/Users/emoore8/Desktop/m21_vsl-main/subject-206.csv","xpyriment","Lentiform Loewenfeld","3.3.11","0","/","NA","NA","NA","NA","space","/","633","NA","NA","NA","NA","28761","633","2","legacy","1024","2","48000","-16","AB_m21","206","even","CW_S","AMUSEMENT","1547","130598","128796","121773","30474","NA","NA","NA","NA","NA","129297","NA","NA","NA","128295","NA","128266","1712","130798","NA","NA","NA","129337","1547","1699","NA","NA","129970","129994","128266","129296","129317","morph21_Oliver/Morris","16","21253","23","yes","1920","38"
"400","","70.83333333333333","70.83333333333333","909.5833333333334","909.5833333333334","black","no","xpyriment","legacy","legacy","0","202","NA","uniform","NA","NA","NA","1","undefined","1","0","23","23","23","0","23","23","23","NA","0","23","NA","NA","0","23","NA","23","0","23","NA","NA","NA","23","0","0","NA","NA","23","23","23","23","23","24","/","Thu Jun 15 13:26:33 2023","Executes Python code","yes","m21-ba-lexicalDecision.osexp","C:\Users\emoore8\Desktop\m21_vsl-main","no","mono","no","18","no","white","no","yes","1080","legacy","23","23","C:/Users/emoore8/Desktop/m21_vsl-main/subject-206.csv","xpyriment","Lentiform Loewenfeld","3.3.11","0","/","NA","NA","NA","NA","space","/","577","NA","NA","NA","NA","28761","577","2","legacy","1024","2","48000","-16","AB_m21","206","even","CW_L","SHAPELY","1547","135542","132292","134038","30474","NA","NA","NA","NA","NA","132792","NA","NA","NA","131791","NA","131758","1712","135942","NA","NA","NA","132832","1547","1699","NA","NA","133410","133435","131758","132792","132812","morph21_Oliver/Morris","17","21830","24","yes","1920","35"
"200","","72","72","901.28","901.28","black","no","xpyriment","legacy","legacy","0","207","NA","uniform","NA","NA","NA","1","undefined","1","0","24","24","24","0","24","24","24","NA","0","24","NA","NA","0","24","NA","24","0","24","NA","NA","NA","24","0","0","NA","NA","24","24","24","24","24","25","/","Thu Jun 15 13:26:33 2023","Executes Python code","yes","m21-ba-lexicalDecision.osexp","C:\Users\emoore8\Desktop\m21_vsl-main","no","mono","no","18","no","white","no","yes","1080","legacy","24","24","C:/Users/emoore8/Desktop/m21_vsl-main/subject-206.csv","xpyriment","Lentiform Loewenfeld","3.3.11","0","/","NA","NA","NA","NA","space","/","702","NA","NA","NA","NA","28761","702","2","legacy","1024","2","48000","-16","AB_m21","206","even","FILL_W","LEGAL","1547","139341","137471","134038","30474","NA","NA","NA","NA","NA","137971","NA","NA","NA","136970","NA","136944","1712","139541","NA","NA","NA","138012","1547","1699","NA","NA","138714","138737","136944","137971","137992","morph21_Oliver/Morris","18","22532","25","yes","1920","35"
"300","","73.07692307692308","73.07692307692308","891.6538461538462","891.6538461538462","black","no","xpyriment","legacy","legacy","0","201","NA","uniform","NA","NA","NA","1","undefined","1","0","25","25","25","0","25","25","25","NA","0","25","NA","NA","0","25","NA","25","0","25","NA","NA","NA","25","0","0","NA","NA","25","25","25","25","25","26","/","Thu Jun 15 13:26:33 2023","Executes Python code","yes","m21-ba-lexicalDecision.osexp","C:\Users\emoore8\Desktop\m21_vsl-main","no","mono","no","18","no","white","no","yes","1080","legacy","25","25","C:/Users/emoore8/Desktop/m21_vsl-main/subject-206.csv","xpyriment","Lentiform Loewenfeld","3.3.11","0","/","NA","NA","NA","NA","space","/","651","NA","NA","NA","NA","28761","651","2","legacy","1024","2","48000","-16","AB_m21","206","even","CW_S","RISKY","1547","142893","141073","134038","30474","NA","NA","NA","NA","NA","141574","NA","NA","NA","140571","NA","140547","1712","143193","NA","NA","NA","141615","1547","1699","NA","NA","142267","142290","140547","141574","141595","morph21_Oliver/Morris","19","23183","26","yes","1920","50"
"200","","74.07407407407408","74.07407407407408","888.9629629629629","888.9629629629629","black","no","xpyriment","legacy","legacy","0","208","NA","uniform","NA","NA","NA","1","undefined","1","0","26","26","26","0","26","26","26","NA","0","26","NA","NA","0","26","NA","26","0","26","NA","NA","NA","26","0","0","NA","NA","26","26","26","26","26","27","z","Thu Jun 15 13:26:33 2023","Executes Python code","yes","m21-ba-lexicalDecision.osexp","C:\Users\emoore8\Desktop\m21_vsl-main","no","mono","no","18","no","white","no","yes","1080","legacy","26","26","C:/Users/emoore8/Desktop/m21_vsl-main/subject-206.csv","xpyriment","Lentiform Loewenfeld","3.3.11","0","z","NA","NA","NA","NA","space","z","819","NA","NA","NA","NA","28761","819","2","legacy","1024","2","48000","-16","AB_m21","206","even","FILL_NW","GILN","1547","148287","144795","146783","30474","NA","NA","NA","NA","NA","145295","NA","NA","NA","144295","NA","144264","1712","148487","NA","NA","NA","145335","1547","1699","NA","NA","146154","146180","144264","145295","145315","morph21_Oliver/Morris","20","24002","27","yes","1920","25"
"300","","75","75","879.6785714285714","879.6785714285714","black","no","xpyriment","legacy","legacy","0","202","NA","uniform","NA","NA","NA","1","undefined","1","0","27","27","27","0","27","27","27","NA","0","27","NA","NA","0","27","NA","27","0","27","NA","NA","NA","27","0","0","NA","NA","27","27","27","27","27","28","/","Thu Jun 15 13:26:33 2023","Executes Python code","yes","m21-ba-lexicalDecision.osexp","C:\Users\emoore8\Desktop\m21_vsl-main","no","mono","no","18","no","white","no","yes","1080","legacy","27","27","C:/Users/emoore8/Desktop/m21_vsl-main/subject-206.csv","xpyriment","Lentiform Loewenfeld","3.3.11","0","/","NA","NA","NA","NA","space","/","629","NA","NA","NA","NA","28761","629","2","legacy","1024","2","48000","-16","AB_m21","206","even","CW_L","WEEDY","1547","151813","150016","146783","30474","NA","NA","NA","NA","NA","150516","NA","NA","NA","149516","NA","149489","1712","152113","NA","NA","NA","150557","1547","1699","NA","NA","151186","151210","149489","150516","150537","morph21_Oliver/Morris","21","24631","28","yes","1920","48"
"250","","75.86206896551724","75.86206896551724","878.448275862069","878.448275862069","black","no","xpyriment","legacy","legacy","0","203","NA","uniform","NA","NA","NA","1","undefined","1","0","28","28","28","0","28","28","28","NA","0","28","NA","NA","0","28","NA","28","0","28","NA","NA","NA","28","0","0","NA","NA","28","28","28","28","28","29","z","Thu Jun 15 13:26:33 2023","Executes Python code","yes","m21-ba-lexicalDecision.osexp","C:\Users\emoore8\Desktop\m21_vsl-main","no","mono","no","18","no","white","no","yes","1080","legacy","28","28","C:/Users/emoore8/Desktop/m21_vsl-main/subject-206.csv","xpyriment","Lentiform Loewenfeld","3.3.11","0","z","NA","NA","NA","NA","space","z","844","NA","NA","NA","NA","28761","844","2","legacy","1024","2","48000","-16","AB_m21","206","even","NW_S_COMP","BEEREL","1547","155621","153610","146783","30474","NA","NA","NA","NA","NA","154110","NA","NA","NA","153110","NA","153084","1712","155872","NA","NA","NA","154150","1547","1699","NA","NA","154994","155018","153084","154110","154130","morph21_Oliver/Morris","22","25475","29","yes","1920","5"
"350","","76.66666666666667","76.66666666666667","881.9333333333333","881.9333333333333","black","no","xpyriment","legacy","legacy","0","206","NA","uniform","NA","NA","NA","1","undefined","1","0","29","29","29","0","29","29","29","NA","0","29","NA","NA","0","29","NA","29","0","29","NA","NA","NA","29","0","0","NA","NA","29","29","29","29","29","30","z","Thu Jun 15 13:26:33 2023","Executes Python code","yes","m21-ba-lexicalDecision.osexp","C:\Users\emoore8\Desktop\m21_vsl-main","no","mono","no","18","no","white","no","yes","1080","legacy","29","29","C:/Users/emoore8/Desktop/m21_vsl-main/subject-206.csv","xpyriment","Lentiform Loewenfeld","3.3.11","0","z","NA","NA","NA","NA","space","z","983","NA","NA","NA","NA","28761","983","2","legacy","1024","2","48000","-16","AB_m21","206","even","NW_L_SIMP","PICKENCE","1547","161038","157382","159533","30474","NA","NA","NA","NA","NA","157883","NA","NA","NA","156881","NA","156849","1712","161388","NA","NA","NA","157923","1547","1699","NA","NA","158906","158930","156849","157883","157903","morph21_Oliver/Morris","23","26458","30","yes","1920","5"
"400","","74.19354838709677","74.19354838709677","885.1612903225806","885.1612903225806","black","no","xpyriment","legacy","legacy","0","203","NA","uniform","NA","NA","NA","0","undefined","0","0","30","30","30","0","30","30","30","NA","0","30","NA","NA","0","30","NA","30","0","30","NA","NA","NA","30","0","0","NA","NA","30","30","30","30","30","31","z","Thu Jun 15 13:26:33 2023","Executes Python code","yes","m21-ba-lexicalDecision.osexp","C:\Users\emoore8\Desktop\m21_vsl-main","no","mono","no","18","no","white","no","yes","1080","legacy","30","30","C:/Users/emoore8/Desktop/m21_vsl-main/subject-206.csv","xpyriment","Lentiform Loewenfeld","3.3.11","0","/","NA","NA","NA","NA","space","/","982","NA","NA","NA","NA","28761","982","2","legacy","1024","2","48000","-16","AB_m21","206","even","NW_S_COMP","TRUENELS","1547","165053","162901","159533","30474","NA","NA","NA","NA","NA","163403","NA","NA","NA","162399","NA","162375","1712","165453","NA","NA","NA","163443","1547","1699","NA","NA","164426","164450","162375","163402","163423","morph21_Oliver/Morris","23","27440","31","yes","1920","15"
"400","","75","75","889.1875","889.1875","black","no","xpyriment","legacy","legacy","0","208","NA","uniform","NA","NA","NA","1","undefined","1","0","31","31","31","0","31","31","31","NA","0","31","NA","NA","0","31","NA","31","0","31","NA","NA","NA","31","0","0","NA","NA","31","31","31","31","31","32","z","Thu Jun 15 13:26:33 2023","Executes Python code","yes","m21-ba-lexicalDecision.osexp","C:\Users\emoore8\Desktop\m21_vsl-main","no","mono","no","18","no","white","no","yes","1080","legacy","31","31","C:/Users/emoore8/Desktop/m21_vsl-main/subject-206.csv","xpyriment","Lentiform Loewenfeld","3.3.11","0","z","NA","NA","NA","NA","space","z","1014","NA","NA","NA","NA","28761","1014","2","legacy","1024","2","48000","-16","AB_m21","206","even","FILL_NW","VELT","1547","169151","166967","159533","30474","NA","NA","NA","NA","NA","167468","NA","NA","NA","166466","NA","166441","1712","169551","NA","NA","NA","167508","1547","1699","NA","NA","168522","168547","166441","167467","167488","morph21_Oliver/Morris","24","28454","32","yes","1920","46"
"250","","75.75757575757575","75.75757575757575","883.9090909090909","883.9090909090909","black","no","xpyriment","legacy","legacy","0","204","NA","uniform","NA","NA","NA","1","undefined","1","0","32","32","32","0","32","32","32","NA","0","32","NA","NA","0","32","NA","32","0","32","NA","NA","NA","32","0","0","NA","NA","32","32","32","32","32","33","z","Thu Jun 15 13:26:33 2023","Executes Python code","yes","m21-ba-lexicalDecision.osexp","C:\Users\emoore8\Desktop\m21_vsl-main","no","mono","no","18","no","white","no","yes","1080","legacy","32","32","C:/Users/emoore8/Desktop/m21_vsl-main/subject-206.csv","xpyriment","Lentiform Loewenfeld","3.3.11","0","z","NA","NA","NA","NA","space","z","715","NA","NA","NA","NA","28761","715","2","legacy","1024","2","48000","-16","AB_m21","206","even","NW_L_COMP","MUDLA","1547","174501","171114","172998","30474","NA","NA","NA","NA","NA","171614","NA","NA","NA","170613","NA","170583","1712","174751","NA","NA","NA","171654","1547","1699","NA","NA","172370","172393","170583","171614","171634","morph21_Oliver/Morris","25","29169","33","yes","1920","12"
"400","","76.47058823529412","76.47058823529412","877.4705882352941","877.4705882352941","black","no","xpyriment","legacy","legacy","0","201","NA","uniform","NA","NA","NA","1","undefined","1","0","33","33","33","0","33","33","33","NA","0","33","NA","NA","0","33","NA","33","0","33","NA","NA","NA","33","0","0","NA","NA","33","33","33","33","33","34","/","Thu Jun 15 13:26:33 2023","Executes Python code","yes","m21-ba-lexicalDecision.osexp","C:\Users\emoore8\Desktop\m21_vsl-main","no","mono","no","18","no","white","no","yes","1080","legacy","33","33","C:/Users/emoore8/Desktop/m21_vsl-main/subject-206.csv","xpyriment","Lentiform Loewenfeld","3.3.11","0","/","NA","NA","NA","NA","space","/","665","NA","NA","NA","NA","28761","665","2","legacy","1024","2","48000","-16","AB_m21","206","even","CW_S","EFFORTLESS","1547","178093","176260","172998","30474","NA","NA","NA","NA","NA","176760","NA","NA","NA","175760","NA","175735","1712","178493","NA","NA","NA","176801","1547","1699","NA","NA","177467","177490","175734","176760","176781","morph21_Oliver/Morris","26","29834","34","yes","1920","30"
"400","","77.14285714285714","77.14285714285714","872.3428571428572","872.3428571428572","black","no","xpyriment","legacy","legacy","0","203","NA","uniform","NA","NA","NA","1","undefined","1","0","34","34","34","0","34","34","34","NA","0","34","NA","NA","0","34","NA","34","0","34","NA","NA","NA","34","0","0","NA","NA","34","34","34","34","34","35","z","Thu Jun 15 13:26:33 2023","Executes Python code","yes","m21-ba-lexicalDecision.osexp","C:\Users\emoore8\Desktop\m21_vsl-main","no","mono","no","18","no","white","no","yes","1080","legacy","34","34","C:/Users/emoore8/Desktop/m21_vsl-main/subject-206.csv","xpyriment","Lentiform Loewenfeld","3.3.11","0","z","NA","NA","NA","NA","space","z","698","NA","NA","NA","NA","28761","698","2","legacy","1024","2","48000","-16","AB_m21","206","even","NW_S_COMP","ALTARIG","1547","181893","180027","172998","30474","NA","NA","NA","NA","NA","180527","NA","NA","NA","179526","NA","179498","1712","182293","NA","NA","NA","180568","1547","1699","NA","NA","181267","181290","179498","180527","180548","morph21_Oliver/Morris","27","30532","35","yes","1920","7"
"200","","77.77777777777777","77.77777777777777","868.1944444444445","868.1944444444445","black","no","xpyriment","legacy","legacy","0","207","NA","uniform","NA","NA","NA","1","undefined","1","0","35","35","35","0","35","35","35","NA","0","35","NA","NA","0","35","NA","35","0","35","NA","NA","NA","35","0","0","NA","NA","35","35","35","35","35","36","/","Thu Jun 15 13:26:33 2023","Executes Python code","yes","m21-ba-lexicalDecision.osexp","C:\Users\emoore8\Desktop\m21_vsl-main","no","mono","no","18","no","white","no","yes","1080","legacy","35","35","C:/Users/emoore8/Desktop/m21_vsl-main/subject-206.csv","xpyriment","Lentiform Loewenfeld","3.3.11","0","/","NA","NA","NA","NA","space","/","723","NA","NA","NA","NA","28761","723","2","legacy","1024","2","48000","-16","AB_m21","206","even","FILL_W","STALK","1547","187181","183786","185678","30474","NA","NA","NA","NA","NA","184286","NA","NA","NA","183286","NA","183260","1712","187381","NA","NA","NA","184327","1547","1699","NA","NA","185051","185075","183260","184286","184307","morph21_Oliver/Morris","28","31255","36","yes","1920","27"
"200","","78.37837837837837","78.37837837837837","863.6216216216217","863.6216216216217","black","no","xpyriment","legacy","legacy","0","201","NA","uniform","NA","NA","NA","1","undefined","1","0","36","36","36","0","36","36","36","NA","0","36","NA","NA","0","36","NA","36","0","36","NA","NA","NA","36","0","0","NA","NA","36","36","36","36","36","37","/","Thu Jun 15 13:26:33 2023","Executes Python code","yes","m21-ba-lexicalDecision.osexp","C:\Users\emoore8\Desktop\m21_vsl-main","no","mono","no","18","no","white","no","yes","1080","legacy","36","36","C:/Users/emoore8/Desktop/m21_vsl-main/subject-206.csv","xpyriment","Lentiform Loewenfeld","3.3.11","0","/","NA","NA","NA","NA","space","/","699","NA","NA","NA","NA","28761","699","2","legacy","1024","2","48000","-16","AB_m21","206","even","CW_S","LISTENER","1547","190767","188897","185678","30474","NA","NA","NA","NA","NA","189398","NA","NA","NA","188396","NA","188372","1712","190967","NA","NA","NA","189439","1547","1699","NA","NA","190139","190163","188372","189398","189419","morph21_Oliver/Morris","29","31954","37","yes","1920","18"
"400","","78.94736842105263","78.94736842105263","860.5263157894736","860.5263157894736","black","no","xpyriment","legacy","legacy","0","204","NA","uniform","NA","NA","NA","1","undefined","1","0","37","37","37","0","37","37","37","NA","0","37","NA","NA","0","37","NA","37","0","37","NA","NA","NA","37","0","0","NA","NA","37","37","37","37","37","38","z","Thu Jun 15 13:26:33 2023","Executes Python code","yes","m21-ba-lexicalDecision.osexp","C:\Users\emoore8\Desktop\m21_vsl-main","no","mono","no","18","no","white","no","yes","1080","legacy","37","37","C:/Users/emoore8/Desktop/m21_vsl-main/subject-206.csv","xpyriment","Lentiform Loewenfeld","3.3.11","0","z","NA","NA","NA","NA","space","z","746","NA","NA","NA","NA","28761","746","2","legacy","1024","2","48000","-16","AB_m21","206","even","NW_L_COMP","RIPENGE","1547","194389","192476","185678","30474","NA","NA","NA","NA","NA","192976","NA","NA","NA","191976","NA","191948","1712","194789","NA","NA","NA","193016","1547","1699","NA","NA","193763","193786","191948","192976","192996","morph21_Oliver/Morris","30","32700","38","yes","1920","4"
"350","","79.48717948717949","79.48717948717949","856.2051282051282","856.2051282051282","black","no","xpyriment","legacy","legacy","0","207","NA","uniform","NA","NA","NA","1","undefined","1","0","38","38","38","0","38","38","38","NA","0","38","NA","NA","0","38","NA","38","0","38","NA","NA","NA","38","0","0","NA","NA","38","38","38","38","38","39","/","Thu Jun 15 13:26:33 2023","Executes Python code","yes","m21-ba-lexicalDecision.osexp","C:\Users\emoore8\Desktop\m21_vsl-main","no","mono","no","18","no","white","no","yes","1080","legacy","38","38","C:/Users/emoore8/Desktop/m21_vsl-main/subject-206.csv","xpyriment","Lentiform Loewenfeld","3.3.11","0","/","NA","NA","NA","NA","space","/","692","NA","NA","NA","NA","28761","692","2","legacy","1024","2","48000","-16","AB_m21","206","even","FILL_W","GLOOM","1547","199653","196289","198150","30474","NA","NA","NA","NA","NA","196789","NA","NA","NA","195789","NA","195766","1712","200003","NA","NA","NA","196830","1547","1699","NA","NA","197522","197547","195766","196789","196810","morph21_Oliver/Morris","31","33392","39","yes","1920","14"
"250","","80","80","849.05","849.05","black","no","xpyriment","legacy","legacy","0","202","NA","uniform","NA","NA","NA","1","undefined","1","0","39","39","39","0","39","39","39","NA","0","39","NA","NA","0","39","NA","39","0","39","NA","NA","NA","39","0","0","NA","NA","39","39","39","39","39","40","/","Thu Jun 15 13:26:33 2023","Executes Python code","yes","m21-ba-lexicalDecision.osexp","C:\Users\emoore8\Desktop\m21_vsl-main","no","mono","no","18","no","white","no","yes","1080","legacy","39","39","C:/Users/emoore8/Desktop/m21_vsl-main/subject-206.csv","xpyriment","Lentiform Loewenfeld","3.3.11","0","/","NA","NA","NA","NA","space","/","570","NA","NA","NA","NA","28761","570","2","legacy","1024","2","48000","-16","AB_m21","206","even","CW_L","FLEXIBLE","1547","203293","201556","198150","30474","NA","NA","NA","NA","NA","202056","NA","NA","NA","201056","NA","201029","1712","203544","NA","NA","NA","202096","1547","1699","NA","NA","202666","202690","201029","202056","202076","morph21_Oliver/Morris","32","33962","40","yes","1920","22"
"400","","80.48780487804878","80.48780487804878","842.780487804878","842.780487804878","black","no","xpyriment","legacy","legacy","0","202","NA","uniform","NA","NA","NA","1","undefined","1","0","40","40","40","0","40","40","40","NA","0","40","NA","NA","0","40","NA","40","0","40","NA","NA","NA","40","0","0","NA","NA","40","40","40","40","40","41","/","Thu Jun 15 13:26:33 2023","Executes Python code","yes","m21-ba-lexicalDecision.osexp","C:\Users\emoore8\Desktop\m21_vsl-main","no","mono","no","18","no","white","no","yes","1080","legacy","40","40","C:/Users/emoore8/Desktop/m21_vsl-main/subject-206.csv","xpyriment","Lentiform Loewenfeld","3.3.11","0","/","NA","NA","NA","NA","space","/","592","NA","NA","NA","NA","28761","592","2","legacy","1024","2","48000","-16","AB_m21","206","even","CW_L","CONDUCTOR","1547","206805","205045","198150","30474","NA","NA","NA","NA","NA","205545","NA","NA","NA","204544","NA","204518","1712","207206","NA","NA","NA","205586","1547","1699","NA","NA","206178","206202","204517","205545","205566","morph21_Oliver/Morris","33","34554","41","yes","1920","44"
"250","","80.95238095238095","80.95238095238095","840.6666666666666","840.6666666666666","black","no","xpyriment","legacy","legacy","0","203","NA","uniform","NA","NA","NA","1","undefined","1","0","41","41","41","0","41","41","41","NA","0","41","NA","NA","0","41","NA","41","0","41","NA","NA","NA","41","0","0","NA","NA","41","41","41","41","41","42","z","Thu Jun 15 13:26:33 2023","Executes Python code","yes","m21-ba-lexicalDecision.osexp","C:\Users\emoore8\Desktop\m21_vsl-main","no","mono","no","18","no","white","no","yes","1080","legacy","41","41","C:/Users/emoore8/Desktop/m21_vsl-main/subject-206.csv","xpyriment","Lentiform Loewenfeld","3.3.11","0","z","NA","NA","NA","NA","space","z","754","NA","NA","NA","NA","28761","754","2","legacy","1024","2","48000","-16","AB_m21","206","even","NW_S_COMP","BRANCHEL","1547","212135","208707","210631","30474","NA","NA","NA","NA","NA","209208","NA","NA","NA","208206","NA","208180","1712","212385","NA","NA","NA","209248","1547","1699","NA","NA","210002","210027","208180","209208","209228","morph21_Oliver/Morris","34","35308","42","yes","1920","16"
"300","","81.3953488372093","81.3953488372093","840.4651162790698","840.4651162790698","black","no","xpyriment","legacy","legacy","0","206","NA","uniform","NA","NA","NA","1","undefined","1","0","42","42","42","0","42","42","42","NA","0","42","NA","NA","0","42","NA","42","0","42","NA","NA","NA","42","0","0","NA","NA","42","42","42","42","42","43","z","Thu Jun 15 13:26:33 2023","Executes Python code","yes","m21-ba-lexicalDecision.osexp","C:\Users\emoore8\Desktop\m21_vsl-main","no","mono","no","18","no","white","no","yes","1080","legacy","42","42","C:/Users/emoore8/Desktop/m21_vsl-main/subject-206.csv","xpyriment","Lentiform Loewenfeld","3.3.11","0","z","NA","NA","NA","NA","space","z","832","NA","NA","NA","NA","28761","832","2","legacy","1024","2","48000","-16","AB_m21","206","even","NW_L_SIMP","BANDARY","1547","215894","213894","210631","30474","NA","NA","NA","NA","NA","214394","NA","NA","NA","213394","NA","213365","1712","216194","NA","NA","NA","214434","1547","1699","NA","NA","215267","215290","213365","214394","214414","morph21_Oliver/Morris","35","36140","43","yes","1920","3"
"350","","81.81818181818181","81.81818181818181","836.2727272727273","836.2727272727273","black","no","xpyriment","legacy","legacy","0","208","NA","uniform","NA","NA","NA","1","undefined","1","0","43","43","43","0","43","43","43","NA","0","43","NA","NA","0","43","NA","43","0","43","NA","NA","NA","43","0","0","NA","NA","43","43","43","43","43","44","z","Thu Jun 15 13:26:33 2023","Executes Python code","yes","m21-ba-lexicalDecision.osexp","C:\Users\emoore8\Desktop\m21_vsl-main","no","mono","no","18","no","white","no","yes","1080","legacy","43","43","C:/Users/emoore8/Desktop/m21_vsl-main/subject-206.csv","xpyriment","Lentiform Loewenfeld","3.3.11","0","z","NA","NA","NA","NA","space","z","656","NA","NA","NA","NA","28761","656","2","legacy","1024","2","48000","-16","AB_m21","206","even","FILL_NW","KRAISE","1547","219517","217694","210631","30474","NA","NA","NA","NA","NA","218194","NA","NA","NA","217194","NA","217169","1712","219867","NA","NA","NA","218234","1547","1699","NA","NA","218891","218914","217169","218194","218214","morph21_Oliver/Morris","36","36796","44","yes","1920","33"
"350","","82.22222222222223","82.22222222222223","830.8888888888889","830.8888888888889","black","no","xpyriment","legacy","legacy","0","202","NA","uniform","NA","NA","NA","1","undefined","1","0","44","44","44","0","44","44","44","NA","0","44","NA","NA","0","44","NA","44","0","44","NA","NA","NA","44","0","0","NA","NA","44","44","44","44","44","45","/","Thu Jun 15 13:26:33 2023","Executes Python code","yes","m21-ba-lexicalDecision.osexp","C:\Users\emoore8\Desktop\m21_vsl-main","no","mono","no","18","no","white","no","yes","1080","legacy","44","44","C:/Users/emoore8/Desktop/m21_vsl-main/subject-206.csv","xpyriment","Lentiform Loewenfeld","3.3.11","0","/","NA","NA","NA","NA","space","/","594","NA","NA","NA","NA","28761","594","2","legacy","1024","2","48000","-16","AB_m21","206","even","CW_L","PARKING","1547","224660","221395","223157","30474","NA","NA","NA","NA","NA","221895","NA","NA","NA","220895","NA","220871","1712","225010","NA","NA","NA","221936","1547","1699","NA","NA","222530","222554","220871","221895","221916","morph21_Oliver/Morris","37","37390","45","yes","1920","25"
"200","","82.6086956521739","82.6086956521739","833.7391304347826","833.7391304347826","black","no","xpyriment","legacy","legacy","0","208","NA","uniform","NA","NA","NA","1","undefined","1","0","45","45","45","0","45","45","45","NA","0","45","NA","NA","0","45","NA","45","0","45","NA","NA","NA","45","0","0","NA","NA","45","45","45","45","45","46","z","Thu Jun 15 13:26:33 2023","Executes Python code","yes","m21-ba-lexicalDecision.osexp","C:\Users\emoore8\Desktop\m21_vsl-main","no","mono","no","18","no","white","no","yes","1080","legacy","45","45","C:/Users/emoore8/Desktop/m21_vsl-main/subject-206.csv","xpyriment","Lentiform Loewenfeld","3.3.11","0","z","NA","NA","NA","NA","space","z","962","NA","NA","NA","NA","28761","962","2","legacy","1024","2","48000","-16","AB_m21","206","even","FILL_NW","SMADE","1547","228647","226515","223157","30474","NA","NA","NA","NA","NA","227015","NA","NA","NA","226014","NA","225988","1712","228847","NA","NA","NA","227056","1547","1699","NA","NA","228019","228044","225988","227015","227036","morph21_Oliver/Morris","38","38352","46","yes","1920","42"
"400","","82.97872340425532","82.97872340425532","830.8297872340426","830.8297872340426","black","no","xpyriment","legacy","legacy","0","201","NA","uniform","NA","NA","NA","1","undefined","1","0","46","46","46","0","46","46","46","NA","0","46","NA","NA","0","46","NA","46","0","46","NA","NA","NA","46","0","0","NA","NA","46","46","46","46","46","47","/","Thu Jun 15 13:26:33 2023","Executes Python code","yes","m21-ba-lexicalDecision.osexp","C:\Users\emoore8\Desktop\m21_vsl-main","no","mono","no","18","no","white","no","yes","1080","legacy","46","46","C:/Users/emoore8/Desktop/m21_vsl-main/subject-206.csv","xpyriment","Lentiform Loewenfeld","3.3.11","0","/","NA","NA","NA","NA","space","/","697","NA","NA","NA","NA","28761","697","2","legacy","1024","2","48000","-16","AB_m21","206","even","CW_S","RAIDER","1547","232213","230348","223157","30474","NA","NA","NA","NA","NA","230848","NA","NA","NA","229847","NA","229821","1712","232613","NA","NA","NA","230889","1547","1699","NA","NA","231586","231610","229821","230848","230869","morph21_Oliver/Morris","39","39049","47","yes","1920","12"
"300","","83.33333333333333","83.33333333333333","826.3333333333334","826.3333333333334","black","no","xpyriment","legacy","legacy","0","201","NA","uniform","NA","NA","NA","1","undefined","1","0","47","47","47","0","47","47","47","NA","0","47","NA","NA","0","47","NA","47","0","47","NA","NA","NA","47","0","0","NA","NA","47","47","47","47","47","48","/","Thu Jun 15 13:26:33 2023","Executes Python code","yes","m21-ba-lexicalDecision.osexp","C:\Users\emoore8\Desktop\m21_vsl-main","no","mono","no","18","no","white","no","yes","1080","legacy","47","47","C:/Users/emoore8/Desktop/m21_vsl-main/subject-206.csv","xpyriment","Lentiform Loewenfeld","3.3.11","0","/","NA","NA","NA","NA","space","/","615","NA","NA","NA","NA","28761","615","2","legacy","1024","2","48000","-16","AB_m21","206","even","CW_S","BUYER","1547","237408","234117","235904","30474","NA","NA","NA","NA","NA","234618","NA","NA","NA","233616","NA","233588","1712","237708","NA","NA","NA","234659","1547","1699","NA","NA","235275","235299","233588","234618","234639","morph21_Oliver/Morris","40","39664","48","yes","1920","21"
"200","","83.6734693877551","83.6734693877551","826.3061224489796","826.3061224489796","black","no","xpyriment","legacy","legacy","0","204","NA","uniform","NA","NA","NA","1","undefined","1","0","48","48","48","0","48","48","48","NA","0","48","NA","NA","0","48","NA","48","0","48","NA","NA","NA","48","0","0","NA","NA","48","48","48","48","48","49","z","Thu Jun 15 13:26:33 2023","Executes Python code","yes","m21-ba-lexicalDecision.osexp","C:\Users\emoore8\Desktop\m21_vsl-main","no","mono","no","18","no","white","no","yes","1080","legacy","48","48","C:/Users/emoore8/Desktop/m21_vsl-main/subject-206.csv","xpyriment","Lentiform Loewenfeld","3.3.11","0","z","NA","NA","NA","NA","space","z","825","NA","NA","NA","NA","28761","825","2","legacy","1024","2","48000","-16","AB_m21","206","even","NW_L_COMP","FLIPODY","1547","241206","239212","235904","30474","NA","NA","NA","NA","NA","239712","NA","NA","NA","238710","NA","238685","1712","241406","NA","NA","NA","239753","1547","1699","NA","NA","240579","240603","238685","239712","239733","morph21_Oliver/Morris","41","40489","49","yes","1920","16"
"400","","82","82","833.78","833.78","black","no","xpyriment","legacy","legacy","0","205","NA","uniform","NA","NA","NA","0","undefined","0","0","49","49","49","0","49","49","49","NA","0","49","NA","NA","0","49","NA","49","0","49","NA","NA","NA","49","0","0","NA","NA","49","49","49","49","49","50","z","Thu Jun 15 13:26:33 2023","Executes Python code","yes","m21-ba-lexicalDecision.osexp","C:\Users\emoore8\Desktop\m21_vsl-main","no","mono","no","18","no","white","no","yes","1080","legacy","49","49","C:/Users/emoore8/Desktop/m21_vsl-main/subject-206.csv","xpyriment","Lentiform Loewenfeld","3.3.11","0","None","NA","NA","NA","NA","space","None","1200","NA","NA","NA","NA","28761","1200","2","legacy","1024","2","48000","-16","AB_m21","206","even","NW_S_SIMP","SCHEMENESS","1547","245290","242922","235904","30474","NA","NA","NA","NA","NA","243422","NA","NA","NA","242422","NA","242396","1712","245690","NA","NA","NA","243463","1547","1699","NA","NA","244663","244687","242396","243422","243443","morph21_Oliver/Morris","41","41689","50","yes","1920","15"
"300","","82.3529411764706","82.3529411764706","833.7058823529412","833.7058823529412","black","no","xpyriment","legacy","legacy","0","208","NA","uniform","NA","NA","NA","1","undefined","1","0","50","50","50","0","50","50","50","NA","0","50","NA","NA","0","50","NA","50","0","50","NA","NA","NA","50","0","0","NA","NA","50","50","50","50","50","51","z","Thu Jun 15 13:26:33 2023","Executes Python code","yes","m21-ba-lexicalDecision.osexp","C:\Users\emoore8\Desktop\m21_vsl-main","no","mono","no","18","no","white","no","yes","1080","legacy","50","50","C:/Users/emoore8/Desktop/m21_vsl-main/subject-206.csv","xpyriment","Lentiform Loewenfeld","3.3.11","0","z","NA","NA","NA","NA","space","z","830","NA","NA","NA","NA","28761","830","2","legacy","1024","2","48000","-16","AB_m21","206","even","FILL_NW","DULKS","1547","250693","247192","249189","30474","NA","NA","NA","NA","NA","247692","NA","NA","NA","246692","NA","246669","1712","250993","NA","NA","NA","247732","1547","1699","NA","NA","248562","248586","246669","247692","247712","morph21_Oliver/Morris","42","42519","51","yes","1920","18"
"250","","82.6923076923077","82.6923076923077","831.6153846153846","831.6153846153846","black","no","xpyriment","legacy","legacy","0","207","NA","uniform","NA","NA","NA","1","undefined","1","0","51","51","51","0","51","51","51","NA","0","51","NA","NA","0","51","NA","51","0","51","NA","NA","NA","51","0","0","NA","NA","51","51","51","51","51","52","/","Thu Jun 15 13:26:33 2023","Executes Python code","yes","m21-ba-lexicalDecision.osexp","C:\Users\emoore8\Desktop\m21_vsl-main","no","mono","no","18","no","white","no","yes","1080","legacy","51","51","C:/Users/emoore8/Desktop/m21_vsl-main/subject-206.csv","xpyriment","Lentiform Loewenfeld","3.3.11","0","/","NA","NA","NA","NA","space","/","725","NA","NA","NA","NA","28761","725","2","legacy","1024","2","48000","-16","AB_m21","206","even","FILL_W","PACK","1547","254421","252529","249189","30474","NA","NA","NA","NA","NA","253029","NA","NA","NA","252028","NA","252005","1712","254671","NA","NA","NA","253069","1547","1699","NA","NA","253795","253818","252005","253029","253049","morph21_Oliver/Morris","43","43244","52","yes","1920","41"
"250","","83.01886792452831","83.01886792452831","832.8867924528302","832.8867924528302","black","no","xpyriment","legacy","legacy","0","207","NA","uniform","NA","NA","NA","1","undefined","1","0","52","52","52","0","52","52","52","NA","0","52","NA","NA","0","52","NA","52","0","52","NA","NA","NA","52","0","0","NA","NA","52","52","52","52","52","53","/","Thu Jun 15 13:26:33 2023","Executes Python code","yes","m21-ba-lexicalDecision.osexp","C:\Users\emoore8\Desktop\m21_vsl-main","no","mono","no","18","no","white","no","yes","1080","legacy","52","52","C:/Users/emoore8/Desktop/m21_vsl-main/subject-206.csv","xpyriment","Lentiform Loewenfeld","3.3.11","0","/","NA","NA","NA","NA","space","/","899","NA","NA","NA","NA","28761","899","2","legacy","1024","2","48000","-16","AB_m21","206","even","FILL_W","FIERCE","1547","258246","256178","249189","30474","NA","NA","NA","NA","NA","256679","NA","NA","NA","255677","NA","255651","1712","258496","NA","NA","NA","256719","1547","1699","NA","NA","257619","257643","255651","256679","256699","morph21_Oliver/Morris","44","44143","53","yes","1920","24"
"250","","83.33333333333333","83.33333333333333","829.9074074074074","829.9074074074074","black","no","xpyriment","legacy","legacy","0","207","NA","uniform","NA","NA","NA","1","undefined","1","0","53","53","53","0","53","53","53","NA","0","53","NA","NA","0","53","NA","53","0","53","NA","NA","NA","53","0","0","NA","NA","53","53","53","53","53","54","/","Thu Jun 15 13:26:33 2023","Executes Python code","yes","m21-ba-lexicalDecision.osexp","C:\Users\emoore8\Desktop\m21_vsl-main","no","mono","no","18","no","white","no","yes","1080","legacy","53","53","C:/Users/emoore8/Desktop/m21_vsl-main/subject-206.csv","xpyriment","Lentiform Loewenfeld","3.3.11","0","/","NA","NA","NA","NA","space","/","672","NA","NA","NA","NA","28761","672","2","legacy","1024","2","48000","-16","AB_m21","206","even","FILL_W","SOUGHT","1547","263344","259996","261840","30474","NA","NA","NA","NA","NA","260497","NA","NA","NA","259494","NA","259471","1712","263594","NA","NA","NA","260538","1547","1699","NA","NA","261210","261237","259471","260497","260518","morph21_Oliver/Morris","45","44815","54","yes","1920","40"
"300","","83.63636363636364","83.63636363636364","833.1272727272727","833.1272727272727","black","no","xpyriment","legacy","legacy","0","205","NA","uniform","NA","NA","NA","1","undefined","1","0","54","54","54","0","54","54","54","NA","0","54","NA","NA","0","54","NA","54","0","54","NA","NA","NA","54","0","0","NA","NA","54","54","54","54","54","55","z","Thu Jun 15 13:26:33 2023","Executes Python code","yes","m21-ba-lexicalDecision.osexp","C:\Users\emoore8\Desktop\m21_vsl-main","no","mono","no","18","no","white","no","yes","1080","legacy","54","54","C:/Users/emoore8/Desktop/m21_vsl-main/subject-206.csv","xpyriment","Lentiform Loewenfeld","3.3.11","0","z","NA","NA","NA","NA","space","z","1007","NA","NA","NA","NA","28761","1007","2","legacy","1024","2","48000","-16","AB_m21","206","even","NW_S_SIMP","SOCKETER","1547","267270","265094","261840","30474","NA","NA","NA","NA","NA","265594","NA","NA","NA","264593","NA","264566","1712","267570","NA","NA","NA","265635","1547","1699","NA","NA","266642","266666","264566","265594","265615","morph21_Oliver/Morris","46","45822","55","yes","1920","1"
"300","","83.92857142857143","83.92857142857143","830.2678571428571","830.2678571428571","black","no","xpyriment","legacy","legacy","0","204","NA","uniform","NA","NA","NA","1","undefined","1","0","55","55","55","0","55","55","55","NA","0","55","NA","NA","0","55","NA","55","0","55","NA","NA","NA","55","0","0","NA","NA","55","55","55","55","55","56","z","Thu Jun 15 13:26:33 2023","Executes Python code","yes","m21-ba-lexicalDecision.osexp","C:\Users\emoore8\Desktop\m21_vsl-main","no","mono","no","18","no","white","no","yes","1080","legacy","55","55","C:/Users/emoore8/Desktop/m21_vsl-main/subject-206.csv","xpyriment","Lentiform Loewenfeld","3.3.11","0","z","NA","NA","NA","NA","space","z","673","NA","NA","NA","NA","28761","673","2","legacy","1024","2","48000","-16","AB_m21","206","even","NW_L_COMP","SHEETEL","1547","270936","269092","261840","30474","NA","NA","NA","NA","NA","269592","NA","NA","NA","268592","NA","268563","1712","271236","NA","NA","NA","269633","1547","1699","NA","NA","270306","270330","268563","269592","269613","morph21_Oliver/Morris","47","46495","56","yes","1920","5"
"400","","84.21052631578948","84.21052631578948","827.8947368421053","827.8947368421053","black","no","xpyriment","legacy","legacy","0","207","NA","uniform","NA","NA","NA","1","undefined","1","0","56","56","56","0","56","56","56","NA","0","56","NA","NA","0","56","NA","56","0","56","NA","NA","NA","56","0","0","NA","NA","56","56","56","56","56","57","/","Thu Jun 15 13:26:33 2023","Executes Python code","yes","m21-ba-lexicalDecision.osexp","C:\Users\emoore8\Desktop\m21_vsl-main","no","mono","no","18","no","white","no","yes","1080","legacy","56","56","C:/Users/emoore8/Desktop/m21_vsl-main/subject-206.csv","xpyriment","Lentiform Loewenfeld","3.3.11","0","/","NA","NA","NA","NA","space","/","695","NA","NA","NA","NA","28761","695","2","legacy","1024","2","48000","-16","AB_m21","206","even","FILL_W","LITHE","1547","276103","272732","274598","30474","NA","NA","NA","NA","NA","273234","NA","NA","NA","272231","NA","272208","1712","276504","NA","NA","NA","273275","1547","1699","NA","NA","273971","273994","272208","273234","273254","morph21_Oliver/Morris","48","47190","57","yes","1920","23"
"300","","84.48275862068965","84.48275862068965","832.6551724137931","832.6551724137931","black","no","xpyriment","legacy","legacy","0","206","NA","uniform","NA","NA","NA","1","undefined","1","0","57","57","57","0","57","57","57","NA","0","57","NA","NA","0","57","NA","57","0","57","NA","NA","NA","57","0","0","NA","NA","57","57","57","57","57","58","z","Thu Jun 15 13:26:33 2023","Executes Python code","yes","m21-ba-lexicalDecision.osexp","C:\Users\emoore8\Desktop\m21_vsl-main","no","mono","no","18","no","white","no","yes","1080","legacy","57","57","C:/Users/emoore8/Desktop/m21_vsl-main/subject-206.csv","xpyriment","Lentiform Loewenfeld","3.3.11","0","z","NA","NA","NA","NA","space","z","1104","NA","NA","NA","NA","28761","1104","2","legacy","1024","2","48000","-16","AB_m21","206","even","NW_L_SIMP","TAXFUL","1547","280285","278013","274598","30474","NA","NA","NA","NA","NA","278514","NA","NA","NA","277513","NA","277486","1712","280585","NA","NA","NA","278554","1547","1699","NA","NA","279658","279682","277486","278514","278534","morph21_Oliver/Morris","49","48294","58","yes","1920","6"
"350","","84.7457627118644","84.7457627118644","829.4067796610169","829.4067796610169","black","no","xpyriment","legacy","legacy","0","202","NA","uniform","NA","NA","NA","1","undefined","1","0","58","58","58","0","58","58","58","NA","0","58","NA","NA","0","58","NA","58","0","58","NA","NA","NA","58","0","0","NA","NA","58","58","58","58","58","59","/","Thu Jun 15 13:26:33 2023","Executes Python code","yes","m21-ba-lexicalDecision.osexp","C:\Users\emoore8\Desktop\m21_vsl-main","no","mono","no","18","no","white","no","yes","1080","legacy","58","58","C:/Users/emoore8/Desktop/m21_vsl-main/subject-206.csv","xpyriment","Lentiform Loewenfeld","3.3.11","0","/","NA","NA","NA","NA","space","/","641","NA","NA","NA","NA","28761","641","2","legacy","1024","2","48000","-16","AB_m21","206","even","CW_L","PAINTER","1547","283904","282093","274598","30474","NA","NA","NA","NA","NA","282593","NA","NA","NA","281593","NA","281569","1712","284254","NA","NA","NA","282633","1547","1699","NA","NA","283274","283300","281569","282593","282613","morph21_Oliver/Morris","50","48935","59","yes","1920","18"
"250","","83.33333333333333","83.33333333333333","826.8166666666667","826.8166666666667","black","no","xpyriment","legacy","legacy","0","206","NA","uniform","NA","NA","NA","0","undefined","0","0","59","59","59","0","59","59","59","NA","0","59","NA","NA","0","59","NA","59","0","59","NA","NA","NA","59","0","0","NA","NA","59","59","59","59","59","60","z","Thu Jun 15 13:26:33 2023","Executes Python code","yes","m21-ba-lexicalDecision.osexp","C:\Users\emoore8\Desktop\m21_vsl-main","no","mono","no","18","no","white","no","yes","1080","legacy","59","59","C:/Users/emoore8/Desktop/m21_vsl-main/subject-206.csv","xpyriment","Lentiform Loewenfeld","3.3.11","0","/","NA","NA","NA","NA","space","/","674","NA","NA","NA","NA","28761","674","2","legacy","1024","2","48000","-16","AB_m21","206","even","NW_L_SIMP","SMOOTHFUL","1547","289117","285770","287614","30474","NA","NA","NA","NA","NA","286271","NA","NA","NA","285267","NA","285244","1712","289367","NA","NA","NA","286312","1547","1699","NA","NA","286987","287011","285244","286271","286292","morph21_Oliver/Morris","50","49609","60","yes","1920","19"
"250","","83.60655737704919","83.60655737704919","824.5409836065573","824.5409836065573","black","no","xpyriment","legacy","legacy","0","205","NA","uniform","NA","NA","NA","1","undefined","1","0","60","60","60","0","60","60","60","NA","0","60","NA","NA","0","60","NA","60","0","60","NA","NA","NA","60","0","0","NA","NA","60","60","60","60","60","61","z","Thu Jun 15 13:26:33 2023","Executes Python code","yes","m21-ba-lexicalDecision.osexp","C:\Users\emoore8\Desktop\m21_vsl-main","no","mono","no","18","no","white","no","yes","1080","legacy","60","60","C:/Users/emoore8/Desktop/m21_vsl-main/subject-206.csv","xpyriment","Lentiform Loewenfeld","3.3.11","0","z","NA","NA","NA","NA","space","z","688","NA","NA","NA","NA","28761","688","2","legacy","1024","2","48000","-16","AB_m21","206","even","NW_S_SIMP","DIGORY","1547","292726","290867","287614","30474","NA","NA","NA","NA","NA","291369","NA","NA","NA","290365","NA","290341","1712","292976","NA","NA","NA","291410","1547","1699","NA","NA","292099","292123","290341","291369","291390","morph21_Oliver/Morris","51","50297","61","yes","1920","11"
"350","","83.87096774193549","83.87096774193549","822.7258064516129","822.7258064516129","black","no","xpyriment","legacy","legacy","0","201","NA","uniform","NA","NA","NA","1","undefined","1","0","61","61","61","0","61","61","61","NA","0","61","NA","NA","0","61","NA","61","0","61","NA","NA","NA","61","0","0","NA","NA","61","61","61","61","61","62","/","Thu Jun 15 13:26:33 2023","Executes Python code","yes","m21-ba-lexicalDecision.osexp","C:\Users\emoore8\Desktop\m21_vsl-main","no","mono","no","18","no","white","no","yes","1080","legacy","61","61","C:/Users/emoore8/Desktop/m21_vsl-main/subject-206.csv","xpyriment","Lentiform Loewenfeld","3.3.11","0","/","NA","NA","NA","NA","space","/","712","NA","NA","NA","NA","28761","712","2","legacy","1024","2","48000","-16","AB_m21","206","even","CW_S","DULLNESS","1547","296357","294478","287614","30474","NA","NA","NA","NA","NA","294978","NA","NA","NA","293978","NA","293952","1712","296707","NA","NA","NA","295018","1547","1699","NA","NA","295731","295754","293952","294978","294998","morph21_Oliver/Morris","52","51009","62","yes","1920","43"
"400","","84.12698412698413","84.12698412698413","819.936507936508","819.936507936508","black","no","xpyriment","legacy","legacy","0","201","NA","uniform","NA","NA","NA","1","undefined","1","0","62","62","62","0","62","62","62","NA","0","62","NA","NA","0","62","NA","62","0","62","NA","NA","NA","62","0","0","NA","NA","62","62","62","62","62","63","/","Thu Jun 15 13:26:33 2023","Executes Python code","yes","m21-ba-lexicalDecision.osexp","C:\Users\emoore8\Desktop\m21_vsl-main","no","mono","no","18","no","white","no","yes","1080","legacy","62","62","C:/Users/emoore8/Desktop/m21_vsl-main/subject-206.csv","xpyriment","Lentiform Loewenfeld","3.3.11","0","/","NA","NA","NA","NA","space","/","647","NA","NA","NA","NA","28761","647","2","legacy","1024","2","48000","-16","AB_m21","206","even","CW_S","DESIGN","1547","301542","298222","300040","30474","NA","NA","NA","NA","NA","298723","NA","NA","NA","297722","NA","297695","1712","301943","NA","NA","NA","298763","1547","1699","NA","NA","299410","299436","297695","298723","298743","morph21_Oliver/Morris","53","51656","63","yes","1920","19"
"250","","84.375","84.375","818.21875","818.21875","black","no","xpyriment","legacy","legacy","0","207","NA","uniform","NA","NA","NA","1","undefined","1","0","63","63","63","0","63","63","63","NA","0","63","NA","NA","0","63","NA","63","0","63","NA","NA","NA","63","0","0","NA","NA","63","63","63","63","63","64","/","Thu Jun 15 13:26:33 2023","Executes Python code","yes","m21-ba-lexicalDecision.osexp","C:\Users\emoore8\Desktop\m21_vsl-main","no","mono","no","18","no","white","no","yes","1080","legacy","63","63","C:/Users/emoore8/Desktop/m21_vsl-main/subject-206.csv","xpyriment","Lentiform Loewenfeld","3.3.11","0","/","NA","NA","NA","NA","space","/","710","NA","NA","NA","NA","28761","710","2","legacy","1024","2","48000","-16","AB_m21","206","even","FILL_W","PREACH","1547","305325","303446","300040","30474","NA","NA","NA","NA","NA","303948","NA","NA","NA","302946","NA","302920","1712","305575","NA","NA","NA","303988","1547","1699","NA","NA","304699","304722","302920","303948","303968","morph21_Oliver/Morris","54","52366","64","yes","1920","7"
"350","","84.61538461538461","84.61538461538461","816.1076923076923","816.1076923076923","black","no","xpyriment","legacy","legacy","0","208","NA","uniform","NA","NA","NA","1","undefined","1","0","64","64","64","0","64","64","64","NA","0","64","NA","NA","0","64","NA","64","0","64","NA","NA","NA","64","0","0","NA","NA","64","64","64","64","64","65","z","Thu Jun 15 13:26:33 2023","Executes Python code","yes","m21-ba-lexicalDecision.osexp","C:\Users\emoore8\Desktop\m21_vsl-main","no","mono","no","18","no","white","no","yes","1080","legacy","64","64","C:/Users/emoore8/Desktop/m21_vsl-main/subject-206.csv","xpyriment","Lentiform Loewenfeld","3.3.11","0","z","NA","NA","NA","NA","space","z","681","NA","NA","NA","NA","28761","681","2","legacy","1024","2","48000","-16","AB_m21","206","even","FILL_NW","DELP","1547","308936","307084","300040","30474","NA","NA","NA","NA","NA","307584","NA","NA","NA","306584","NA","306557","1712","309286","NA","NA","NA","307625","1547","1699","NA","NA","308306","308332","306557","307584","307605","morph21_Oliver/Morris","55","53047","65","yes","1920","14"
"200","","84.84848484848484","84.84848484848484","813.7878787878788","813.7878787878788","black","no","xpyriment","legacy","legacy","0","208","NA","uniform","NA","NA","NA","1","undefined","1","0","65","65","65","0","65","65","65","NA","0","65","NA","NA","0","65","NA","65","0","65","NA","NA","NA","65","0","0","NA","NA","65","65","65","65","65","66","z","Thu Jun 15 13:26:33 2023","Executes Python code","yes","m21-ba-lexicalDecision.osexp","C:\Users\emoore8\Desktop\m21_vsl-main","no","mono","no","18","no","white","no","yes","1080","legacy","65","65","C:/Users/emoore8/Desktop/m21_vsl-main/subject-206.csv","xpyriment","Lentiform Loewenfeld","3.3.11","0","z","NA","NA","NA","NA","space","z","663","NA","NA","NA","NA","28761","663","2","legacy","1024","2","48000","-16","AB_m21","206","even","FILL_NW","CINDS","1547","314125","310790","312621","30474","NA","NA","NA","NA","NA","311290","NA","NA","NA","310290","NA","310264","1712","314325","NA","NA","NA","311331","1547","1699","NA","NA","311995","312018","310264","311290","311311","morph21_Oliver/Morris","56","53710","66","yes","1920","6"
"300","","85.07462686567165","85.07462686567165","812.7164179104477","812.7164179104477","black","no","xpyriment","legacy","legacy","0","205","NA","uniform","NA","NA","NA","1","undefined","1","0","66","66","66","0","66","66","66","NA","0","66","NA","NA","0","66","NA","66","0","66","NA","NA","NA","66","0","0","NA","NA","66","66","66","66","66","67","z","Thu Jun 15 13:26:33 2023","Executes Python code","yes","m21-ba-lexicalDecision.osexp","C:\Users\emoore8\Desktop\m21_vsl-main","no","mono","no","18","no","white","no","yes","1080","legacy","66","66","C:/Users/emoore8/Desktop/m21_vsl-main/subject-206.csv","xpyriment","Lentiform Loewenfeld","3.3.11","0","z","NA","NA","NA","NA","space","z","742","NA","NA","NA","NA","28761","742","2","legacy","1024","2","48000","-16","AB_m21","206","even","NW_S_SIMP","WARNORY","1547","317733","315824","312621","30474","NA","NA","NA","NA","NA","316324","NA","NA","NA","315324","NA","315301","1712","318033","NA","NA","NA","316364","1547","1699","NA","NA","317107","317130","315301","316324","316344","morph21_Oliver/Morris","57","54452","67","yes","1920","12"
"400","","85.29411764705883","85.29411764705883","811.8235294117648","811.8235294117648","black","no","xpyriment","legacy","legacy","0","205","NA","uniform","NA","NA","NA","1","undefined","1","0","67","67","67","0","67","67","67","NA","0","67","NA","NA","0","67","NA","67","0","67","NA","NA","NA","67","0","0","NA","NA","67","67","67","67","67","68","z","Thu Jun 15 13:26:33 2023","Executes Python code","yes","m21-ba-lexicalDecision.osexp","C:\Users\emoore8\Desktop\m21_vsl-main","no","mono","no","18","no","white","no","yes","1080","legacy","67","67","C:/Users/emoore8/Desktop/m21_vsl-main/subject-206.csv","xpyriment","Lentiform Loewenfeld","3.3.11","0","z","NA","NA","NA","NA","space","z","752","NA","NA","NA","NA","28761","752","2","legacy","1024","2","48000","-16","AB_m21","206","even","NW_S_SIMP","RAMPIZE","1547","321471","319548","312621","30474","NA","NA","NA","NA","NA","320048","NA","NA","NA","319048","NA","319020","1712","321871","NA","NA","NA","320089","1547","1699","NA","NA","320842","320867","319020","320048","320069","morph21_Oliver/Morris","58","55204","68","yes","1920","6"
"350","","85.5072463768116","85.5072463768116","808.4202898550725","808.4202898550725","black","no","xpyriment","legacy","legacy","0","201","NA","uniform","NA","NA","NA","1","undefined","1","0","68","68","68","0","68","68","68","NA","0","68","NA","NA","0","68","NA","68","0","68","NA","NA","NA","68","0","0","NA","NA","68","68","68","68","68","69","/","Thu Jun 15 13:26:33 2023","Executes Python code","yes","m21-ba-lexicalDecision.osexp","C:\Users\emoore8\Desktop\m21_vsl-main","no","mono","no","18","no","white","no","yes","1080","legacy","68","68","C:/Users/emoore8/Desktop/m21_vsl-main/subject-206.csv","xpyriment","Lentiform Loewenfeld","3.3.11","0","/","NA","NA","NA","NA","space","/","577","NA","NA","NA","NA","28761","577","2","legacy","1024","2","48000","-16","AB_m21","206","even","CW_S","TOASTER","1547","326644","323396","325141","30474","NA","NA","NA","NA","NA","323896","NA","NA","NA","322896","NA","322871","1712","326994","NA","NA","NA","323937","1547","1699","NA","NA","324514","324538","322871","323896","323917","morph21_Oliver/Morris","59","55781","69","yes","1920","10"
"300","","85.71428571428571","85.71428571428571","806.3428571428572","806.3428571428572","black","no","xpyriment","legacy","legacy","0","208","NA","uniform","NA","NA","NA","1","undefined","1","0","69","69","69","0","69","69","69","NA","0","69","NA","NA","0","69","NA","69","0","69","NA","NA","NA","69","0","0","NA","NA","69","69","69","69","69","70","z","Thu Jun 15 13:26:33 2023","Executes Python code","yes","m21-ba-lexicalDecision.osexp","C:\Users\emoore8\Desktop\m21_vsl-main","no","mono","no","18","no","white","no","yes","1080","legacy","69","69","C:/Users/emoore8/Desktop/m21_vsl-main/subject-206.csv","xpyriment","Lentiform Loewenfeld","3.3.11","0","z","NA","NA","NA","NA","space","z","663","NA","NA","NA","NA","28761","663","2","legacy","1024","2","48000","-16","AB_m21","206","even","FILL_NW","DASK","1547","330415","328582","325141","30474","NA","NA","NA","NA","NA","329082","NA","NA","NA","328081","NA","328052","1712","330715","NA","NA","NA","329123","1547","1699","NA","NA","329787","329812","328052","329082","329103","morph21_Oliver/Morris","60","56444","70","yes","1920","12"
"400","","85.91549295774648","85.91549295774648","805.3521126760563","805.3521126760563","black","no","xpyriment","legacy","legacy","0","205","NA","uniform","NA","NA","NA","1","undefined","1","0","70","70","70","0","70","70","70","NA","0","70","NA","NA","0","70","NA","70","0","70","NA","NA","NA","70","0","0","NA","NA","70","70","70","70","70","71","z","Thu Jun 15 13:26:33 2023","Executes Python code","yes","m21-ba-lexicalDecision.osexp","C:\Users\emoore8\Desktop\m21_vsl-main","no","mono","no","18","no","white","no","yes","1080","legacy","70","70","C:/Users/emoore8/Desktop/m21_vsl-main/subject-206.csv","xpyriment","Lentiform Loewenfeld","3.3.11","0","z","NA","NA","NA","NA","space","z","736","NA","NA","NA","NA","28761","736","2","legacy","1024","2","48000","-16","AB_m21","206","even","NW_S_SIMP","MEDICALARY","1547","334126","332222","325141","30474","NA","NA","NA","NA","NA","332722","NA","NA","NA","331722","NA","331699","1712","334526","NA","NA","NA","332762","1547","1699","NA","NA","333499","333523","331699","332722","332742","morph21_Oliver/Morris","61","57180","71","yes","1920","18"
"200","","86.11111111111111","86.11111111111111","810.3888888888889","810.3888888888889","black","no","xpyriment","legacy","legacy","0","202","NA","uniform","NA","NA","NA","1","undefined","1","0","71","71","71","0","71","71","71","NA","0","71","NA","NA","0","71","NA","71","0","71","NA","NA","NA","71","0","0","NA","NA","71","71","71","71","71","72","/","Thu Jun 15 13:26:33 2023","Executes Python code","yes","m21-ba-lexicalDecision.osexp","C:\Users\emoore8\Desktop\m21_vsl-main","no","mono","no","18","no","white","no","yes","1080","legacy","71","71","C:/Users/emoore8/Desktop/m21_vsl-main/subject-206.csv","xpyriment","Lentiform Loewenfeld","3.3.11","0","/","NA","NA","NA","NA","space","/","1168","NA","NA","NA","NA","28761","1168","2","legacy","1024","2","48000","-16","AB_m21","206","even","CW_L","BONELESS","1547","339883","336036","338377","30474","NA","NA","NA","NA","NA","336537","NA","NA","NA","335534","NA","335510","1712","340083","NA","NA","NA","336578","1547","1699","NA","NA","337746","337772","335510","336537","336558","morph21_Oliver/Morris","62","58348","72","yes","1920","34"
"400","","86.3013698630137","86.3013698630137","809.2328767123288","809.2328767123288","black","no","xpyriment","legacy","legacy","0","201","NA","uniform","NA","NA","NA","1","undefined","1","0","72","72","72","0","72","72","72","NA","0","72","NA","NA","0","72","NA","72","0","72","NA","NA","NA","72","0","0","NA","NA","72","72","72","72","72","73","/","Thu Jun 15 13:26:33 2023","Executes Python code","yes","m21-ba-lexicalDecision.osexp","C:\Users\emoore8\Desktop\m21_vsl-main","no","mono","no","18","no","white","no","yes","1080","legacy","72","72","C:/Users/emoore8/Desktop/m21_vsl-main/subject-206.csv","xpyriment","Lentiform Loewenfeld","3.3.11","0","/","NA","NA","NA","NA","space","/","726","NA","NA","NA","NA","28761","726","2","legacy","1024","2","48000","-16","AB_m21","206","even","CW_S","ALLOWANCE","1547","343503","341606","338377","30474","NA","NA","NA","NA","NA","342107","NA","NA","NA","341104","NA","341079","1712","343903","NA","NA","NA","342148","1547","1699","NA","NA","342875","342899","341079","342107","342128","morph21_Oliver/Morris","63","59074","73","yes","1920","5"
"350","","86.48648648648648","86.48648648648648","809.2972972972973","809.2972972972973","black","no","xpyriment","legacy","legacy","0","202","NA","uniform","NA","NA","NA","1","undefined","1","0","73","73","73","0","73","73","73","NA","0","73","NA","NA","0","73","NA","73","0","73","NA","NA","NA","73","0","0","NA","NA","73","73","73","73","73","74","/","Thu Jun 15 13:26:33 2023","Executes Python code","yes","m21-ba-lexicalDecision.osexp","C:\Users\emoore8\Desktop\m21_vsl-main","no","mono","no","18","no","white","no","yes","1080","legacy","73","73","C:/Users/emoore8/Desktop/m21_vsl-main/subject-206.csv","xpyriment","Lentiform Loewenfeld","3.3.11","0","/","NA","NA","NA","NA","space","/","814","NA","NA","NA","NA","28761","814","2","legacy","1024","2","48000","-16","AB_m21","206","even","CW_L","GUARDING","1547","347390","345407","338377","30474","NA","NA","NA","NA","NA","345908","NA","NA","NA","344907","NA","344881","1712","347740","NA","NA","NA","345948","1547","1699","NA","NA","346763","346786","344881","345908","345928","morph21_Oliver/Morris","64","59888","74","yes","1920","26"
"200","","86.66666666666667","86.66666666666667","810.5466666666666","810.5466666666666","black","no","xpyriment","legacy","legacy","0","204","NA","uniform","NA","NA","NA","undefined","undefined","1","0","74","74","74","0","74","74","74","NA","0","74","NA","NA","0","74","NA","74","0","74","NA","NA","NA","74","0","0","NA","NA","74","74","74","74","74","75","z","Thu Jun 15 13:26:33 2023","Executes Python code","yes","m21-ba-lexicalDecision.osexp","C:\Users\emoore8\Desktop\m21_vsl-main","no","mono","no","18","no","white","no","yes","1080","legacy","74","74","C:/Users/emoore8/Desktop/m21_vsl-main/subject-206.csv","xpyriment","Lentiform Loewenfeld","3.3.11","0","space","space","NA","NA","NA","space","z","5616","5616","NA","NA","NA","28761","903","2","legacy","1024","2","48000","-16","AB_m21","206","even","NW_L_COMP","GASFIL","1547","352822","349245","351318","30474","353026","NA","NA","NA","NA","349745","NA","NA","NA","348744","NA","348716","1712","358643","NA","NA","NA","349786","1547","1699","NA","NA","350690","350715","348716","349745","349766","morph21_Oliver/Morris","65","60791","75","yes","1920","6"
"350","","85.52631578947368","85.52631578947368","815.671052631579","815.671052631579","black","no","xpyriment","legacy","legacy","0","201","NA","uniform","NA","NA","NA","0","undefined","0","0","75","75","75","0","75","75","75","NA","0","75","NA","NA","0","75","NA","75","0","75","NA","NA","NA","75","0","0","NA","NA","75","75","75","75","75","76","/","Thu Jun 15 13:26:33 2023","Executes Python code","yes","m21-ba-lexicalDecision.osexp","C:\Users\emoore8\Desktop\m21_vsl-main","no","mono","no","18","no","white","no","yes","1080","legacy","75","75","C:/Users/emoore8/Desktop/m21_vsl-main/subject-206.csv","xpyriment","Lentiform Loewenfeld","3.3.11","0","None","space","NA","NA","NA","space","None","1200","5616","NA","NA","NA","28761","1200","2","legacy","1024","2","48000","-16","AB_m21","206","even","CW_S","CHILLY","1547","362599","360231","351318","30474","353026","NA","NA","NA","NA","360731","NA","NA","NA","359730","NA","359703","1712","362949","NA","NA","NA","360772","1547","1699","NA","NA","361972","361995","359703","360731","360752","morph21_Oliver/Morris","65","61991","76","yes","1920","48"
"350","","85.71428571428571","85.71428571428571","815.2077922077922","815.2077922077922","black","no","xpyriment","legacy","legacy","0","201","NA","uniform","NA","NA","NA","1","undefined","1","0","76","76","76","0","76","76","76","NA","0","76","NA","NA","0","76","NA","76","0","76","NA","NA","NA","76","0","0","NA","NA","76","76","76","76","76","77","/","Thu Jun 15 13:26:33 2023","Executes Python code","yes","m21-ba-lexicalDecision.osexp","C:\Users\emoore8\Desktop\m21_vsl-main","no","mono","no","18","no","white","no","yes","1080","legacy","76","76","C:/Users/emoore8/Desktop/m21_vsl-main/subject-206.csv","xpyriment","Lentiform Loewenfeld","3.3.11","0","/","space","NA","NA","NA","space","/","780","5616","NA","NA","NA","28761","780","2","legacy","1024","2","48000","-16","AB_m21","206","even","CW_S","STRANGENESS","1547","366430","364482","351318","30474","353026","NA","NA","NA","NA","364982","NA","NA","NA","363981","NA","363954","1712","366781","NA","NA","NA","365022","1547","1699","NA","NA","365803","365826","363954","364982","365002","morph21_Oliver/Morris","66","62771","77","yes","1920","46"
"200","","85.8974358974359","85.8974358974359","812.7564102564103","812.7564102564103","black","no","xpyriment","legacy","legacy","0","201","NA","uniform","NA","NA","NA","1","undefined","1","0","77","77","77","0","77","77","77","NA","0","77","NA","NA","0","77","NA","77","0","77","NA","NA","NA","77","0","0","NA","NA","77","77","77","77","77","78","/","Thu Jun 15 13:26:33 2023","Executes Python code","yes","m21-ba-lexicalDecision.osexp","C:\Users\emoore8\Desktop\m21_vsl-main","no","mono","no","18","no","white","no","yes","1080","legacy","77","77","C:/Users/emoore8/Desktop/m21_vsl-main/subject-206.csv","xpyriment","Lentiform Loewenfeld","3.3.11","0","/","space","NA","NA","NA","space","/","624","5616","NA","NA","NA","28761","624","2","legacy","1024","2","48000","-16","AB_m21","206","even","CW_S","ANGELIC","1547","371574","368276","370071","30474","353026","NA","NA","NA","NA","368777","NA","NA","NA","367776","NA","367750","1712","371774","NA","NA","NA","368818","1547","1699","NA","NA","369442","369466","367750","368777","368798","morph21_Oliver/Morris","67","63395","78","yes","1920","25"
"250","","86.07594936708861","86.07594936708861","810.1012658227849","810.1012658227849","black","no","xpyriment","legacy","legacy","0","201","NA","uniform","NA","NA","NA","1","undefined","1","0","78","78","78","0","78","78","78","NA","0","78","NA","NA","0","78","NA","78","0","78","NA","NA","NA","78","0","0","NA","NA","78","78","78","78","78","79","/","Thu Jun 15 13:26:33 2023","Executes Python code","yes","m21-ba-lexicalDecision.osexp","C:\Users\emoore8\Desktop\m21_vsl-main","no","mono","no","18","no","white","no","yes","1080","legacy","78","78","C:/Users/emoore8/Desktop/m21_vsl-main/subject-206.csv","xpyriment","Lentiform Loewenfeld","3.3.11","0","/","space","NA","NA","NA","space","/","603","5616","NA","NA","NA","28761","603","2","legacy","1024","2","48000","-16","AB_m21","206","even","CW_S","GRIMLY","1547","375055","373282","370071","30474","353026","NA","NA","NA","NA","373783","NA","NA","NA","372782","NA","372756","1712","375305","NA","NA","NA","373823","1547","1699","NA","NA","374427","374451","372756","373783","373803","morph21_Oliver/Morris","68","63998","79","yes","1920","31"
"300","","86.25","86.25","811.75","811.75","black","no","xpyriment","legacy","legacy","0","203","NA","uniform","NA","NA","NA","1","undefined","1","0","79","79","79","0","79","79","79","NA","0","79","NA","NA","0","79","NA","79","0","79","NA","NA","NA","79","0","0","NA","NA","79","79","79","79","79","80","z","Thu Jun 15 13:26:33 2023","Executes Python code","yes","m21-ba-lexicalDecision.osexp","C:\Users\emoore8\Desktop\m21_vsl-main","no","mono","no","18","no","white","no","yes","1080","legacy","79","79","C:/Users/emoore8/Desktop/m21_vsl-main/subject-206.csv","xpyriment","Lentiform Loewenfeld","3.3.11","0","z","space","NA","NA","NA","space","z","942","5616","NA","NA","NA","28761","942","2","legacy","1024","2","48000","-16","AB_m21","206","even","NW_S_COMP","CURTIDY","1547","378927","376814","370071","30474","353026","NA","NA","NA","NA","377314","NA","NA","NA","376314","NA","376287","1712","379227","NA","NA","NA","377356","1547","1699","NA","NA","378299","378323","376287","377314","377335","morph21_Oliver/Morris","69","64940","80","yes","1920","11"
"350","","86.41975308641975","86.41975308641975","809.5925925925926","809.5925925925926","black","no","xpyriment","legacy","legacy","0","201","NA","uniform","NA","NA","NA","1","undefined","1","0","80","80","80","0","80","80","80","NA","0","80","NA","NA","0","80","NA","80","0","80","NA","NA","NA","80","0","0","NA","NA","80","80","80","80","80","81","/","Thu Jun 15 13:26:33 2023","Executes Python code","yes","m21-ba-lexicalDecision.osexp","C:\Users\emoore8\Desktop\m21_vsl-main","no","mono","no","18","no","white","no","yes","1080","legacy","80","80","C:/Users/emoore8/Desktop/m21_vsl-main/subject-206.csv","xpyriment","Lentiform Loewenfeld","3.3.11","0","/","space","NA","NA","NA","space","/","637","5616","NA","NA","NA","28761","637","2","legacy","1024","2","48000","-16","AB_m21","206","even","CW_S","RICHNESS","1547","384052","380744","382549","30474","353026","NA","NA","NA","NA","381244","NA","NA","NA","380244","NA","380217","1712","384402","NA","NA","NA","381285","1547","1699","NA","NA","381923","381946","380216","381244","381264","morph21_Oliver/Morris","70","65577","81","yes","1920","45"
"250","","86.58536585365853","86.58536585365853","809.0121951219512","809.0121951219512","black","no","xpyriment","legacy","legacy","0","208","NA","uniform","NA","NA","NA","1","undefined","1","0","81","81","81","0","81","81","81","NA","0","81","NA","NA","0","81","NA","81","0","81","NA","NA","NA","81","0","0","NA","NA","81","81","81","81","81","82","z","Thu Jun 15 13:26:33 2023","Executes Python code","yes","m21-ba-lexicalDecision.osexp","C:\Users\emoore8\Desktop\m21_vsl-main","no","mono","no","18","no","white","no","yes","1080","legacy","81","81","C:/Users/emoore8/Desktop/m21_vsl-main/subject-206.csv","xpyriment","Lentiform Loewenfeld","3.3.11","0","z","space","NA","NA","NA","space","z","762","5616","NA","NA","NA","28761","762","2","legacy","1024","2","48000","-16","AB_m21","206","even","FILL_NW","PLAODS","1547","387846","385916","382549","30474","353026","NA","NA","NA","NA","386416","NA","NA","NA","385415","NA","385388","1712","388096","NA","NA","NA","386456","1547","1699","NA","NA","387219","387242","385387","386416","386436","morph21_Oliver/Morris","71","66339","82","yes","1920","37"
"300","","85.5421686746988","85.5421686746988","813.722891566265","813.722891566265","black","no","xpyriment","legacy","legacy","0","204","NA","uniform","NA","NA","NA","0","undefined","0","0","82","82","82","0","82","82","82","NA","0","82","NA","NA","0","82","NA","82","0","82","NA","NA","NA","82","0","0","NA","NA","82","82","82","82","82","83","z","Thu Jun 15 13:26:33 2023","Executes Python code","yes","m21-ba-lexicalDecision.osexp","C:\Users\emoore8\Desktop\m21_vsl-main","no","mono","no","18","no","white","no","yes","1080","legacy","82","82","C:/Users/emoore8/Desktop/m21_vsl-main/subject-206.csv","xpyriment","Lentiform Loewenfeld","3.3.11","0","None","space","NA","NA","NA","space","None","1200","5616","NA","NA","NA","28761","1200","2","legacy","1024","2","48000","-16","AB_m21","206","even","NW_L_COMP","ADDMANT","1547","391966","389598","382549","30474","353026","NA","NA","NA","NA","390098","NA","NA","NA","389098","NA","389075","1712","392266","NA","NA","NA","390139","1547","1699","NA","NA","391339","391362","389075","390098","390119","morph21_Oliver/Morris","71","67539","83","yes","1920","13"
"350","","85.71428571428571","85.71428571428571","813.8333333333334","813.8333333333334","black","no","xpyriment","legacy","legacy","0","202","NA","uniform","NA","NA","NA","1","undefined","1","0","83","83","83","0","83","83","83","NA","0","83","NA","NA","0","83","NA","83","0","83","NA","NA","NA","83","0","0","NA","NA","83","83","83","83","83","84","/","Thu Jun 15 13:26:33 2023","Executes Python code","yes","m21-ba-lexicalDecision.osexp","C:\Users\emoore8\Desktop\m21_vsl-main","no","mono","no","18","no","white","no","yes","1080","legacy","83","83","C:/Users/emoore8/Desktop/m21_vsl-main/subject-206.csv","xpyriment","Lentiform Loewenfeld","3.3.11","0","/","space","NA","NA","NA","space","/","823","5616","NA","NA","NA","28761","823","2","legacy","1024","2","48000","-16","AB_m21","206","even","CW_L","BARKER","1547","397287","393791","395782","30474","353026","NA","NA","NA","NA","394291","NA","NA","NA","393291","NA","393263","1712","397638","NA","NA","NA","394331","1547","1699","NA","NA","395154","395179","393263","394291","394311","morph21_Oliver/Morris","72","68362","84","yes","1920","2"
"350","","85.88235294117646","85.88235294117646","812.4588235294118","812.4588235294118","black","no","xpyriment","legacy","legacy","0","201","NA","uniform","NA","NA","NA","1","undefined","1","0","84","84","84","0","84","84","84","NA","0","84","NA","NA","0","84","NA","84","0","84","NA","NA","NA","84","0","0","NA","NA","84","84","84","84","84","85","/","Thu Jun 15 13:26:33 2023","Executes Python code","yes","m21-ba-lexicalDecision.osexp","C:\Users\emoore8\Desktop\m21_vsl-main","no","mono","no","18","no","white","no","yes","1080","legacy","84","84","C:/Users/emoore8/Desktop/m21_vsl-main/subject-206.csv","xpyriment","Lentiform Loewenfeld","3.3.11","0","/","space","NA","NA","NA","space","/","697","5616","NA","NA","NA","28761","697","2","legacy","1024","2","48000","-16","AB_m21","206","even","CW_S","DENSELY","1547","401046","399180","395782","30474","353026","NA","NA","NA","NA","399680","NA","NA","NA","398680","NA","398652","1712","401396","NA","NA","NA","399721","1547","1699","NA","NA","400419","400442","398652","399680","399701","morph21_Oliver/Morris","73","69059","85","yes","1920","32"
"400","","86.04651162790698","86.04651162790698","810.6395348837209","810.6395348837209","black","no","xpyriment","legacy","legacy","0","202","NA","uniform","NA","NA","NA","1","undefined","1","0","85","85","85","0","85","85","85","NA","0","85","NA","NA","0","85","NA","85","0","85","NA","NA","NA","85","0","0","NA","NA","85","85","85","85","85","86","/","Thu Jun 15 13:26:33 2023","Executes Python code","yes","m21-ba-lexicalDecision.osexp","C:\Users\emoore8\Desktop\m21_vsl-main","no","mono","no","18","no","white","no","yes","1080","legacy","85","85","C:/Users/emoore8/Desktop/m21_vsl-main/subject-206.csv","xpyriment","Lentiform Loewenfeld","3.3.11","0","/","space","NA","NA","NA","space","/","656","5616","NA","NA","NA","28761","656","2","legacy","1024","2","48000","-16","AB_m21","206","even","CW_L","LOCKER","1547","404749","402925","395782","30474","353026","NA","NA","NA","NA","403425","NA","NA","NA","402425","NA","402401","1712","405149","NA","NA","NA","403466","1547","1699","NA","NA","404123","404146","402401","403425","403446","morph21_Oliver/Morris","74","69715","86","yes","1920","8"
"250","","86.20689655172414","86.20689655172414","813.6321839080459","813.6321839080459","black","no","xpyriment","legacy","legacy","0","206","NA","uniform","NA","NA","NA","1","undefined","1","0","86","86","86","0","86","86","86","NA","0","86","NA","NA","0","86","NA","86","0","86","NA","NA","NA","86","0","0","NA","NA","86","86","86","86","86","87","z","Thu Jun 15 13:26:33 2023","Executes Python code","yes","m21-ba-lexicalDecision.osexp","C:\Users\emoore8\Desktop\m21_vsl-main","no","mono","no","18","no","white","no","yes","1080","legacy","86","86","C:/Users/emoore8/Desktop/m21_vsl-main/subject-206.csv","xpyriment","Lentiform Loewenfeld","3.3.11","0","z","space","NA","NA","NA","space","z","1071","5616","NA","NA","NA","28761","1071","2","legacy","1024","2","48000","-16","AB_m21","206","even","NW_L_SIMP","BEARIST","1547","410421","406678","408917","30474","353026","NA","NA","NA","NA","407178","NA","NA","NA","406177","NA","406151","1712","410671","NA","NA","NA","407219","1547","1699","NA","NA","408291","408314","406150","407178","407199","morph21_Oliver/Morris","75","70786","87","yes","1920","25"
"350","","85.22727272727273","85.22727272727273","813.0568181818181","813.0568181818181","black","no","xpyriment","legacy","legacy","0","202","NA","uniform","NA","NA","NA","0","undefined","0","0","87","87","87","0","87","87","87","NA","0","87","NA","NA","0","87","NA","87","0","87","NA","NA","NA","87","0","0","NA","NA","87","87","87","87","87","88","/","Thu Jun 15 13:26:33 2023","Executes Python code","yes","m21-ba-lexicalDecision.osexp","C:\Users\emoore8\Desktop\m21_vsl-main","no","mono","no","18","no","white","no","yes","1080","legacy","87","87","C:/Users/emoore8/Desktop/m21_vsl-main/subject-206.csv","xpyriment","Lentiform Loewenfeld","3.3.11","0","z","space","NA","NA","NA","space","z","763","5616","NA","NA","NA","28761","763","2","legacy","1024","2","48000","-16","AB_m21","206","even","CW_L","GUILELESS","1547","414135","412201","408917","30474","353026","NA","NA","NA","NA","412703","NA","NA","NA","411699","NA","411673","1712","414485","NA","NA","NA","412743","1547","1699","NA","NA","413506","413531","411673","412703","412723","morph21_Oliver/Morris","75","71549","88","yes","1920","31"
"200","","85.3932584269663","85.3932584269663","812.7078651685393","812.7078651685393","black","no","xpyriment","legacy","legacy","0","203","NA","uniform","NA","NA","NA","1","undefined","1","0","88","88","88","0","88","88","88","NA","0","88","NA","NA","0","88","NA","88","0","88","NA","NA","NA","88","0","0","NA","NA","88","88","88","88","88","89","z","Thu Jun 15 13:26:33 2023","Executes Python code","yes","m21-ba-lexicalDecision.osexp","C:\Users\emoore8\Desktop\m21_vsl-main","no","mono","no","18","no","white","no","yes","1080","legacy","88","88","C:/Users/emoore8/Desktop/m21_vsl-main/subject-206.csv","xpyriment","Lentiform Loewenfeld","3.3.11","0","z","space","NA","NA","NA","space","z","782","5616","NA","NA","NA","28761","782","2","legacy","1024","2","48000","-16","AB_m21","206","even","NW_S_COMP","ANTILM","1547","417950","415998","408917","30474","353026","NA","NA","NA","NA","416499","NA","NA","NA","415495","NA","415473","1712","418150","NA","NA","NA","416540","1547","1699","NA","NA","417323","417346","415473","416499","416520","morph21_Oliver/Morris","76","72331","89","yes","1920","8"
