"ITI","acc","accuracy","average_response_time","avg_rt","background","bidi","canvas_backend","clock_backend","color_backend","compensation","cond_trig","condtrigtime","coordinates","coroutines_cycles","coroutines_duration","coroutines_mean_cycle_duration","correct","correct_instructions_1","correct_new_keyboard_response_1","count_BA_m21","count_ITI","count_blank_screen","count_blink_screen","count_block1","count_break1","count_break2","count_break3_1","count_canvas","count_correct_trigger","count_def_chain","count_end_screen","count_fixation_1","count_getting_started","count_inc_counter","count_incorrect_trigger","count_instructions_1","count_logger","count_logscript","count_new_coroutines","count_new_inline_script","count_new_keyboard_response_1","count_reset_counter_prep","count_reset_counter_run","count_responsescreen","count_sequence","count_start_trigger","count_target_present","count_word_trigger","counter","cresp","datetime","description","disable_garbage_collection","experiment_file","experiment_path","font_bold","font_family","font_italic","font_size","font_underline","foreground","form_clicks","fullscreen","height","keyboard_backend","live_row","live_row_block1","logfile","mouse_backend","opensesame_codename","opensesame_version","repeat_cycle","response","response_break1","response_break2","response_break3_1","response_end_screen","response_instructions_1","response_new_keyboard_response_1","response_time","response_time_break1","response_time_break2","response_time_break3_1","response_time_end_screen","response_time_instructions_1","response_time_new_keyboard_response_1","round_decimals","sampler_backend","sound_buf_size","sound_channels","sound_freq","sound_sample_size","start","subject_nr","subject_parity","targ_type","target","time_BA_m21","time_ITI","time_blank_screen","time_blink_screen","time_block1","time_break1","time_break2","time_break3_1","time_canvas","time_correct_trigger","time_def_chain","time_end_screen","time_fixation_1","time_getting_started","time_inc_counter","time_incorrect_trigger","time_instructions_1","time_logger","time_logscript","time_new_inline_script","time_new_keyboard_response_1","time_reset_counter_prep","time_reset_counter_run","time_responsescreen","time_sequence","time_start_trigger","time_target_present","time_word_trigger","title","total_correct","total_response_time","total_responses","uniform_coordinates","width","word_trig"
"200","100","100","855","855","black","no","xpyriment","legacy","legacy","0","208","NA","uniform","58640","1000","0.0170532060027","1","undefined","1","0","0","0","0","0","0","0","0","NA","0","0","0","0","NA","0","0","0","0","NA","0","NA","0","0","0","0","0","0","0","0","1","z","10/24/18 16:20:15","The main experiment item","yes","FIN__BA__M21__7%3A10%3A17.osexp","C:\Users\ERP Testing Room\Desktop\Joanna\morph21","no","mono","no","18","no","white","no","yes","1080","legacy","0","0","C:/Users/ERP Testing Room/Desktop/Joanna/morph21/subject-144.csv","xpyriment","Jazzy James","3.1.4","0","z","NA","NA","NA","NA","space","z","855","NA","NA","NA","NA","149841","855","2","legacy","1024","2","48000","-16","BA_m21","144","even","FILL_NW","PUCTS","2589","155314","153706","NA","152451","NA","NA","NA","NA","155308","154203","NA","153203","NA","153128","155308","2609","155514","NA","NA","154315","2589","2589","154706","153128","2589","154314","155514","morph21_Oliver/Morris","1","855","1","yes","1280","40"
"400","50","50","790.5","790.5","black","no","xpyriment","legacy","legacy","0","206","NA","uniform","65494","1000","0.0152685742205","0","undefined","0","0","1","1","1","0","1","1","1","NA","1","1","0","1","NA","1","1","0","1","NA","1","NA","1","0","0","1","1","0","1","1","2","z","10/24/18 16:20:15","The main experiment item","yes","FIN__BA__M21__7%3A10%3A17.osexp","C:\Users\ERP Testing Room\Desktop\Joanna\morph21","no","mono","no","18","no","white","no","yes","1080","legacy","1","1","C:/Users/ERP Testing Room/Desktop/Joanna/morph21/subject-144.csv","xpyriment","Jazzy James","3.1.4","0","/","NA","NA","NA","NA","space","/","726","NA","NA","NA","NA","149841","726","2","legacy","1024","2","48000","-16","BA_m21","144","even","NW_L_SIMP","BLOODER","2589","158357","156773","NA","152451","NA","NA","NA","NA","155308","157270","NA","156273","NA","156270","158352","2609","158757","NA","NA","157357","2589","2589","157757","156270","2589","157357","158757","morph21_Oliver/Morris","1","1581","2","yes","1280","24"
"250","66.6666666667","66.6666666667","698.333333333","698.333333333","black","no","xpyriment","legacy","legacy","0","207","NA","uniform","74497","1000","0.0134233593299","1","undefined","1","0","2","2","2","0","2","2","2","NA","2","2","0","2","NA","2","2","0","2","NA","2","NA","2","0","0","2","2","0","2","2","3","/","10/24/18 16:20:15","The main experiment item","yes","FIN__BA__M21__7%3A10%3A17.osexp","C:\Users\ERP Testing Room\Desktop\Joanna\morph21","no","mono","no","18","no","white","no","yes","1080","legacy","2","2","C:/Users/ERP Testing Room/Desktop/Joanna/morph21/subject-144.csv","xpyriment","Jazzy James","3.1.4","0","/","NA","NA","NA","NA","space","/","514","NA","NA","NA","NA","149841","514","2","legacy","1024","2","48000","-16","BA_m21","144","even","FILL_W","SOUGHT","2589","163166","160049","161657","152451","NA","NA","NA","NA","161647","160546","NA","159549","NA","159544","161647","2609","163416","NA","NA","160657","2589","2589","161049","159544","2589","160657","163416","morph21_Oliver/Morris","2","2095","3","yes","1280","40"
"350","75","75","704.75","704.75","black","no","xpyriment","legacy","legacy","0","203","NA","uniform","63050","1000","0.0158604282316","1","undefined","1","0","3","3","3","0","3","3","3","NA","3","3","0","3","NA","3","3","0","3","NA","3","NA","3","0","0","3","3","0","3","3","4","z","10/24/18 16:20:15","The main experiment item","yes","FIN__BA__M21__7%3A10%3A17.osexp","C:\Users\ERP Testing Room\Desktop\Joanna\morph21","no","mono","no","18","no","white","no","yes","1080","legacy","3","3","C:/Users/ERP Testing Room/Desktop/Joanna/morph21/subject-144.csv","xpyriment","Jazzy James","3.1.4","0","z","NA","NA","NA","NA","space","z","724","NA","NA","NA","NA","149841","724","2","legacy","1024","2","48000","-16","BA_m21","144","even","NW_S_COMP","WELDIG","2589","166191","164624","161657","152451","NA","NA","NA","NA","166188","165121","NA","164124","NA","164118","166188","2609","166541","NA","NA","165199","2589","2589","165591","164118","2589","165199","166541","morph21_Oliver/Morris","3","2819","4","yes","1280","21"
"200","80","80","679.8","679.8","black","no","xpyriment","legacy","legacy","0","208","NA","uniform","69250","1000","0.014440433213","1","undefined","1","0","4","4","4","0","4","4","4","NA","4","4","0","4","NA","4","4","0","4","NA","4","NA","4","0","0","4","4","0","4","4","5","z","10/24/18 16:20:15","The main experiment item","yes","FIN__BA__M21__7%3A10%3A17.osexp","C:\Users\ERP Testing Room\Desktop\Joanna\morph21","no","mono","no","18","no","white","no","yes","1080","legacy","4","4","C:/Users/ERP Testing Room/Desktop/Joanna/morph21/subject-144.csv","xpyriment","Jazzy James","3.1.4","0","z","NA","NA","NA","NA","space","z","580","NA","NA","NA","NA","149841","580","2","legacy","1024","2","48000","-16","BA_m21","144","even","FILL_NW","VUNKS","2589","169358","167774","161657","152451","NA","NA","NA","NA","169347","168271","NA","167274","NA","167264","169347","2609","169558","NA","NA","168358","2589","2589","168749","167263","2589","168358","169558","morph21_Oliver/Morris","4","3399","5","yes","1280","49"
"350","83.3333333333","83.3333333333","673.5","673.5","black","no","xpyriment","legacy","legacy","0","208","NA","uniform","67642","1000","0.0147837142604","1","undefined","1","0","5","5","5","0","5","5","5","NA","5","5","0","5","NA","5","5","0","5","NA","5","NA","5","0","0","5","5","0","5","5","6","z","10/24/18 16:20:15","The main experiment item","yes","FIN__BA__M21__7%3A10%3A17.osexp","C:\Users\ERP Testing Room\Desktop\Joanna\morph21","no","mono","no","18","no","white","no","yes","1080","legacy","5","5","C:/Users/ERP Testing Room/Desktop/Joanna/morph21/subject-144.csv","xpyriment","Jazzy James","3.1.4","0","z","NA","NA","NA","NA","space","z","642","NA","NA","NA","NA","149841","642","2","legacy","1024","2","48000","-16","BA_m21","144","even","FILL_NW","DARF","2589","173933","170816","172424","152451","NA","NA","NA","NA","172418","171313","NA","170316","NA","170306","172418","2609","174283","NA","NA","171424","2589","2589","171816","170306","2589","171424","174283","morph21_Oliver/Morris","5","4041","6","yes","1280","10"
"350","85.7142857143","85.7142857143","664","664","black","no","xpyriment","legacy","legacy","0","207","NA","uniform","70860","1000","0.0141123341801","1","undefined","1","0","6","6","6","0","6","6","6","NA","6","6","0","6","NA","6","6","0","6","NA","6","NA","6","0","0","6","6","0","6","6","7","/","10/24/18 16:20:15","The main experiment item","yes","FIN__BA__M21__7%3A10%3A17.osexp","C:\Users\ERP Testing Room\Desktop\Joanna\morph21","no","mono","no","18","no","white","no","yes","1080","legacy","6","6","C:/Users/ERP Testing Room/Desktop/Joanna/morph21/subject-144.csv","xpyriment","Jazzy James","3.1.4","0","/","NA","NA","NA","NA","space","/","607","NA","NA","NA","NA","149841","607","2","legacy","1024","2","48000","-16","BA_m21","144","even","FILL_W","FAINT","2589","177076","175492","172424","152451","NA","NA","NA","NA","177067","175989","NA","174992","NA","174987","177067","2609","177426","NA","NA","176076","2589","2589","176467","174987","2589","176076","177426","morph21_Oliver/Morris","6","4648","7","yes","1280","31"
"300","75","75","659.375","659.375","black","no","xpyriment","legacy","legacy","0","202","NA","uniform","68462","1000","0.0146066431013","0","undefined","0","0","7","7","7","0","7","7","7","NA","7","7","0","7","NA","7","7","0","7","NA","7","NA","7","0","0","7","7","0","7","7","8","/","10/24/18 16:20:15","The main experiment item","yes","FIN__BA__M21__7%3A10%3A17.osexp","C:\Users\ERP Testing Room\Desktop\Joanna\morph21","no","mono","no","18","no","white","no","yes","1080","legacy","7","7","C:/Users/ERP Testing Room/Desktop/Joanna/morph21/subject-144.csv","xpyriment","Jazzy James","3.1.4","0","z","NA","NA","NA","NA","space","z","627","NA","NA","NA","NA","149841","627","2","legacy","1024","2","48000","-16","BA_m21","144","even","CW_L","WEEDY","2589","180368","178767","172424","152451","NA","NA","NA","NA","177067","179265","NA","178267","NA","178261","180365","2609","180668","NA","NA","179376","2589","2589","179767","178261","2589","179376","180668","morph21_Oliver/Morris","6","5275","8","yes","1280","48"
"250","77.7777777778","77.7777777778","658","658","black","no","xpyriment","legacy","legacy","0","201","NA","uniform","68719","1000","0.0145520161818","1","undefined","1","0","8","8","8","0","8","8","8","NA","8","8","0","8","NA","8","8","0","8","NA","8","NA","8","0","0","8","8","0","8","8","9","/","10/24/18 16:20:15","The main experiment item","yes","FIN__BA__M21__7%3A10%3A17.osexp","C:\Users\ERP Testing Room\Desktop\Joanna\morph21","no","mono","no","18","no","white","no","yes","1080","legacy","8","8","C:/Users/ERP Testing Room/Desktop/Joanna/morph21/subject-144.csv","xpyriment","Jazzy James","3.1.4","0","/","NA","NA","NA","NA","space","/","647","NA","NA","NA","NA","149841","647","2","legacy","1024","2","48000","-16","BA_m21","144","even","CW_S","PLANNER","2589","184976","181834","183468","152451","NA","NA","NA","NA","183463","182331","NA","181334","NA","181329","183463","2609","185226","NA","NA","182468","2589","2589","182868","181328","2589","182468","185226","morph21_Oliver/Morris","7","5922","9","yes","1280","22"
"250","80","80","650.2","650.2","black","no","xpyriment","legacy","legacy","0","204","NA","uniform","70336","1000","0.0142174704277","1","undefined","1","0","9","9","9","0","9","9","9","NA","9","9","0","9","NA","9","9","0","9","NA","9","NA","9","0","0","9","9","0","9","9","10","z","10/24/18 16:20:15","The main experiment item","yes","FIN__BA__M21__7%3A10%3A17.osexp","C:\Users\ERP Testing Room\Desktop\Joanna\morph21","no","mono","no","18","no","white","no","yes","1080","legacy","9","9","C:/Users/ERP Testing Room/Desktop/Joanna/morph21/subject-144.csv","xpyriment","Jazzy James","3.1.4","0","z","NA","NA","NA","NA","space","z","580","NA","NA","NA","NA","149841","580","2","legacy","1024","2","48000","-16","BA_m21","144","even","NW_L_COMP","TRIPADY","2589","188110","186518","183468","152451","NA","NA","NA","NA","188104","187015","NA","186018","NA","186014","188104","2609","188360","NA","NA","187110","2589","2589","187501","186014","2589","187110","188360","morph21_Oliver/Morris","8","6502","10","yes","1280","2"
"250","81.8181818182","81.8181818182","636.090909091","636.090909091","black","no","xpyriment","legacy","legacy","0","201","NA","uniform","72891","1000","0.0137191148427","1","undefined","1","0","10","10","10","0","10","10","10","NA","10","10","0","10","NA","10","10","0","10","NA","10","NA","10","0","0","10","10","0","10","10","11","/","10/24/18 16:20:15","The main experiment item","yes","FIN__BA__M21__7%3A10%3A17.osexp","C:\Users\ERP Testing Room\Desktop\Joanna\morph21","no","mono","no","18","no","white","no","yes","1080","legacy","10","10","C:/Users/ERP Testing Room/Desktop/Joanna/morph21/subject-144.csv","xpyriment","Jazzy James","3.1.4","0","/","NA","NA","NA","NA","space","/","495","NA","NA","NA","NA","149841","495","2","legacy","1024","2","48000","-16","BA_m21","144","even","CW_S","HARMLESS","2589","191243","189660","183468","152451","NA","NA","NA","NA","191237","190157","NA","189160","NA","189154","191237","2609","191493","NA","NA","190243","2589","2589","190635","189154","2589","190243","191493","morph21_Oliver/Morris","9","6997","11","yes","1280","29"
"350","83.3333333333","83.3333333333","627.333333333","627.333333333","black","no","xpyriment","legacy","legacy","0","202","NA","uniform","72069","1000","0.0138755914471","1","undefined","1","0","11","11","11","0","11","11","11","NA","11","11","0","11","NA","11","11","0","11","NA","11","NA","11","0","0","11","11","0","11","11","12","/","10/24/18 16:20:15","The main experiment item","yes","FIN__BA__M21__7%3A10%3A17.osexp","C:\Users\ERP Testing Room\Desktop\Joanna\morph21","no","mono","no","18","no","white","no","yes","1080","legacy","11","11","C:/Users/ERP Testing Room/Desktop/Joanna/morph21/subject-144.csv","xpyriment","Jazzy James","3.1.4","0","/","NA","NA","NA","NA","space","/","531","NA","NA","NA","NA","149841","531","2","legacy","1024","2","48000","-16","BA_m21","144","even","CW_L","PAINTER","2589","195853","192761","194344","152451","NA","NA","NA","NA","194337","193258","NA","192260","NA","192250","194337","2609","196203","NA","NA","193344","2589","2589","193736","192250","2589","193344","196203","morph21_Oliver/Morris","10","7528","12","yes","1280","18"
"250","84.6153846154","84.6153846154","622.615384615","622.615384615","black","no","xpyriment","legacy","legacy","0","206","NA","uniform","69305","1000","0.0144289733785","1","undefined","1","0","12","12","12","0","12","12","12","NA","12","12","0","12","NA","12","12","0","12","NA","12","NA","12","0","0","12","12","0","12","12","13","z","10/24/18 16:20:15","The main experiment item","yes","FIN__BA__M21__7%3A10%3A17.osexp","C:\Users\ERP Testing Room\Desktop\Joanna\morph21","no","mono","no","18","no","white","no","yes","1080","legacy","12","12","C:/Users/ERP Testing Room/Desktop/Joanna/morph21/subject-144.csv","xpyriment","Jazzy James","3.1.4","0","z","NA","NA","NA","NA","space","z","566","NA","NA","NA","NA","149841","566","2","legacy","1024","2","48000","-16","BA_m21","144","even","NW_L_SIMP"," DRESSORY","2589","199061","197428","194344","152451","NA","NA","NA","NA","199054","197925","NA","196928","NA","196918","199054","2609","199311","NA","NA","198061","2589","2589","198453","196918","2589","198061","199311","morph21_Oliver/Morris","11","8094","13","yes","1280","21"
"300","85.7142857143","85.7142857143","619.5","619.5","black","no","xpyriment","legacy","legacy","0","206","NA","uniform","67881","1000","0.0147316627628","1","undefined","1","0","13","13","13","0","13","13","13","NA","13","13","0","13","NA","13","13","0","13","NA","13","NA","13","0","0","13","13","0","13","13","14","z","10/24/18 16:20:15","The main experiment item","yes","FIN__BA__M21__7%3A10%3A17.osexp","C:\Users\ERP Testing Room\Desktop\Joanna\morph21","no","mono","no","18","no","white","no","yes","1080","legacy","13","13","C:/Users/ERP Testing Room/Desktop/Joanna/morph21/subject-144.csv","xpyriment","Jazzy James","3.1.4","0","z","NA","NA","NA","NA","space","z","579","NA","NA","NA","NA","149841","579","2","legacy","1024","2","48000","-16","BA_m21","144","even","NW_L_SIMP","ELBOWISM","2589","202136","200528","194344","152451","NA","NA","NA","NA","202126","201025","NA","200028","NA","200020","202126","2609","202436","NA","NA","201136","2589","2589","201528","200020","2589","201136","202436","morph21_Oliver/Morris","12","8673","14","yes","1280","10"
"350","86.6666666667","86.6666666667","618.066666667","618.066666667","black","no","xpyriment","legacy","legacy","0","202","NA","uniform","71962","1000","0.0138962230066","1","undefined","1","0","14","14","14","0","14","14","14","NA","14","14","0","14","NA","14","14","0","14","NA","14","NA","14","0","0","14","14","0","14","14","15","/","10/24/18 16:20:15","The main experiment item","yes","FIN__BA__M21__7%3A10%3A17.osexp","C:\Users\ERP Testing Room\Desktop\Joanna\morph21","no","mono","no","18","no","white","no","yes","1080","legacy","14","14","C:/Users/ERP Testing Room/Desktop/Joanna/morph21/subject-144.csv","xpyriment","Jazzy James","3.1.4","0","/","NA","NA","NA","NA","space","/","598","NA","NA","NA","NA","149841","598","2","legacy","1024","2","48000","-16","BA_m21","144","even","CW_L","GUARDING","2589","206745","203653","205236","152451","NA","NA","NA","NA","205226","204150","NA","203153","NA","203149","205226","2609","207095","NA","NA","204236","2589","2589","204628","203149","2589","204236","207095","morph21_Oliver/Morris","13","9271","15","yes","1280","26"
"300","87.5","87.5","615.4375","615.4375","black","no","xpyriment","legacy","legacy","0","208","NA","uniform","67264","1000","0.01486679353","1","undefined","1","0","15","15","15","0","15","15","15","NA","15","15","0","15","NA","15","15","0","15","NA","15","NA","15","0","0","15","15","0","15","15","16","z","10/24/18 16:20:15","The main experiment item","yes","FIN__BA__M21__7%3A10%3A17.osexp","C:\Users\ERP Testing Room\Desktop\Joanna\morph21","no","mono","no","18","no","white","no","yes","1080","legacy","15","15","C:/Users/ERP Testing Room/Desktop/Joanna/morph21/subject-144.csv","xpyriment","Jazzy James","3.1.4","0","z","NA","NA","NA","NA","space","z","576","NA","NA","NA","NA","149841","576","2","legacy","1024","2","48000","-16","BA_m21","144","even","FILL_NW","SCURE","2589","209987","208386","205236","152451","NA","NA","NA","NA","209978","208884","NA","207886","NA","207877","209978","2609","210288","NA","NA","208986","2589","2589","209378","207877","2589","208986","210288","morph21_Oliver/Morris","14","9847","16","yes","1280","41"
"400","88.2352941176","88.2352941176","625.058823529","625.058823529","black","no","xpyriment","legacy","legacy","0","202","NA","uniform","58111","1000","0.0172084459053","1","undefined","1","0","16","16","16","0","16","16","16","NA","16","16","0","16","NA","16","16","0","16","NA","16","NA","16","0","0","16","16","0","16","16","17","/","10/24/18 16:20:15","The main experiment item","yes","FIN__BA__M21__7%3A10%3A17.osexp","C:\Users\ERP Testing Room\Desktop\Joanna\morph21","no","mono","no","18","no","white","no","yes","1080","legacy","16","16","C:/Users/ERP Testing Room/Desktop/Joanna/morph21/subject-144.csv","xpyriment","Jazzy James","3.1.4","0","/","NA","NA","NA","NA","space","/","779","NA","NA","NA","NA","149841","779","2","legacy","1024","2","48000","-16","BA_m21","144","even","CW_L","DRYNESS","2589","213096","211479","205236","152451","NA","NA","NA","NA","213088","211976","NA","210979","NA","210971","213088","2609","213496","NA","NA","212096","2589","2589","212488","210970","2589","212096","213496","morph21_Oliver/Morris","15","10626","17","yes","1280","42"
"400","83.3333333333","83.3333333333","645.666666667","645.666666667","black","no","xpyriment","legacy","legacy","0","202","NA","uniform","57107","1000","0.0175109881451","0","undefined","0","0","17","17","17","0","17","17","17","NA","17","17","0","17","NA","17","17","0","17","NA","17","NA","17","0","0","17","17","0","17","17","18","/","10/24/18 16:20:15","The main experiment item","yes","FIN__BA__M21__7%3A10%3A17.osexp","C:\Users\ERP Testing Room\Desktop\Joanna\morph21","no","mono","no","18","no","white","no","yes","1080","legacy","17","17","C:/Users/ERP Testing Room/Desktop/Joanna/morph21/subject-144.csv","xpyriment","Jazzy James","3.1.4","0","None","NA","NA","NA","NA","space","None","996","NA","NA","NA","NA","149841","996","2","legacy","1024","2","48000","-16","BA_m21","144","even","CW_L","CLOUDLESS","2589","217838","214746","216329","152451","NA","NA","NA","NA","213088","215243","NA","214246","NA","214241","216325","2609","218238","NA","NA","215329","2589","2589","215729","214241","2589","215329","218238","morph21_Oliver/Morris","15","11622","18","yes","1280","33"
"200","84.2105263158","84.2105263158","639.473684211","639.473684211","black","no","xpyriment","legacy","legacy","0","208","NA","uniform","72630","1000","0.0137684152554","1","undefined","1","0","18","18","18","0","18","18","18","NA","18","18","0","18","NA","18","18","0","18","NA","18","NA","18","0","0","18","18","0","18","18","19","z","10/24/18 16:20:15","The main experiment item","yes","FIN__BA__M21__7%3A10%3A17.osexp","C:\Users\ERP Testing Room\Desktop\Joanna\morph21","no","mono","no","18","no","white","no","yes","1080","legacy","18","18","C:/Users/ERP Testing Room/Desktop/Joanna/morph21/subject-144.csv","xpyriment","Jazzy James","3.1.4","0","z","NA","NA","NA","NA","space","z","528","NA","NA","NA","NA","149841","528","2","legacy","1024","2","48000","-16","BA_m21","144","even","FILL_NW","TUEER","2589","221130","219538","216329","152451","NA","NA","NA","NA","221124","220035","NA","219030","NA","219022","221124","2609","221330","NA","NA","220130","2589","2589","220521","219022","2589","220130","221330","morph21_Oliver/Morris","16","12150","19","yes","1280","44"
"250","85","85","634.3","634.3","black","no","xpyriment","legacy","legacy","0","208","NA","uniform","70441","1000","0.014196277736","1","undefined","1","0","19","19","19","0","19","19","19","NA","19","19","0","19","NA","19","19","0","19","NA","19","NA","19","0","0","19","19","0","19","19","20","z","10/24/18 16:20:15","The main experiment item","yes","FIN__BA__M21__7%3A10%3A17.osexp","C:\Users\ERP Testing Room\Desktop\Joanna\morph21","no","mono","no","18","no","white","no","yes","1080","legacy","19","19","C:/Users/ERP Testing Room/Desktop/Joanna/morph21/subject-144.csv","xpyriment","Jazzy James","3.1.4","0","z","NA","NA","NA","NA","space","z","536","NA","NA","NA","NA","149841","536","2","legacy","1024","2","48000","-16","BA_m21","144","even","FILL_NW","PLAODS","2589","224130","222538","216329","152451","NA","NA","NA","NA","224123","223035","NA","222038","NA","222030","224123","2609","224380","NA","NA","223130","2589","2589","223521","222030","2589","223130","224380","morph21_Oliver/Morris","17","12686","20","yes","1280","37"
"400","85.7142857143","85.7142857143","630.904761905","630.904761905","black","no","xpyriment","legacy","legacy","0","208","NA","uniform","67952","1000","0.0147162703085","1","undefined","1","0","20","20","20","0","20","20","20","NA","20","20","0","20","NA","20","20","0","20","NA","20","NA","20","0","0","20","20","0","20","20","21","z","10/24/18 16:20:15","The main experiment item","yes","FIN__BA__M21__7%3A10%3A17.osexp","C:\Users\ERP Testing Room\Desktop\Joanna\morph21","no","mono","no","18","no","white","no","yes","1080","legacy","20","20","C:/Users/ERP Testing Room/Desktop/Joanna/morph21/subject-144.csv","xpyriment","Jazzy James","3.1.4","0","z","NA","NA","NA","NA","space","z","563","NA","NA","NA","NA","149841","563","2","legacy","1024","2","48000","-16","BA_m21","144","even","FILL_NW","GIKE","2589","228756","225655","227247","152451","NA","NA","NA","NA","227241","226152","NA","225146","NA","225143","227241","2609","229156","NA","NA","226247","2589","2589","226638","225143","2589","226247","229156","morph21_Oliver/Morris","18","13249","21","yes","1280","24"
"200","81.8181818182","81.8181818182","620.409090909","620.409090909","black","no","xpyriment","legacy","legacy","0","207","NA","uniform","75079","1000","0.0133193036668","0","undefined","0","0","21","21","21","0","21","21","21","NA","21","21","0","21","NA","21","21","0","21","NA","21","NA","21","0","0","21","21","0","21","21","22","/","10/24/18 16:20:15","The main experiment item","yes","FIN__BA__M21__7%3A10%3A17.osexp","C:\Users\ERP Testing Room\Desktop\Joanna\morph21","no","mono","no","18","no","white","no","yes","1080","legacy","21","21","C:/Users/ERP Testing Room/Desktop/Joanna/morph21/subject-144.csv","xpyriment","Jazzy James","3.1.4","0","z","NA","NA","NA","NA","space","z","400","NA","NA","NA","NA","149841","400","2","legacy","1024","2","48000","-16","BA_m21","144","even","FILL_W","STALK","2589","231973","230389","227247","152451","NA","NA","NA","NA","227241","230886","NA","229889","NA","229884","231968","2609","232173","NA","NA","230973","2589","2589","231373","229884","2589","230973","232173","morph21_Oliver/Morris","18","13649","22","yes","1280","27"
"200","82.6086956522","82.6086956522","614.782608696","614.782608696","black","no","xpyriment","legacy","legacy","0","207","NA","uniform","68184","1000","0.0146661973484","1","undefined","1","0","22","22","22","0","22","22","22","NA","22","22","0","22","NA","22","22","0","22","NA","22","NA","22","0","0","22","22","0","22","22","23","/","10/24/18 16:20:15","The main experiment item","yes","FIN__BA__M21__7%3A10%3A17.osexp","C:\Users\ERP Testing Room\Desktop\Joanna\morph21","no","mono","no","18","no","white","no","yes","1080","legacy","22","22","C:/Users/ERP Testing Room/Desktop/Joanna/morph21/subject-144.csv","xpyriment","Jazzy James","3.1.4","0","/","NA","NA","NA","NA","space","/","491","NA","NA","NA","NA","149841","491","2","legacy","1024","2","48000","-16","BA_m21","144","even","FILL_W","WRECK","2589","235048","233440","227247","152451","NA","NA","NA","NA","235043","233937","NA","232939","NA","232929","235043","2609","235248","NA","NA","234048","2589","2589","234448","232929","2589","234048","235248","morph21_Oliver/Morris","19","14140","23","yes","1280","13"
"400","83.3333333333","83.3333333333","610.833333333","610.833333333","black","no","xpyriment","legacy","legacy","0","202","NA","uniform","70952","1000","0.0140940354042","1","undefined","1","0","23","23","23","0","23","23","23","NA","23","23","0","23","NA","23","23","0","23","NA","23","NA","23","0","0","23","23","0","23","23","24","/","10/24/18 16:20:15","The main experiment item","yes","FIN__BA__M21__7%3A10%3A17.osexp","C:\Users\ERP Testing Room\Desktop\Joanna\morph21","no","mono","no","18","no","white","no","yes","1080","legacy","23","23","C:/Users/ERP Testing Room/Desktop/Joanna/morph21/subject-144.csv","xpyriment","Jazzy James","3.1.4","0","/","NA","NA","NA","NA","space","/","520","NA","NA","NA","NA","149841","520","2","legacy","1024","2","48000","-16","BA_m21","144","even","CW_L","BLINDNESS","2589","239606","236473","238098","152451","NA","NA","NA","NA","238095","236970","NA","235973","NA","235967","238095","2609","240007","NA","NA","237106","2589","2589","237498","235967","2589","237106","240007","morph21_Oliver/Morris","20","14660","24","yes","1280","40"
"400","84","84","608.56","608.56","black","no","xpyriment","legacy","legacy","0","207","NA","uniform","74374","1000","0.0134455589319","1","undefined","1","0","24","24","24","0","24","24","24","NA","24","24","0","24","NA","24","24","0","24","NA","24","NA","24","0","0","24","24","0","24","24","25","/","10/24/18 16:20:15","The main experiment item","yes","FIN__BA__M21__7%3A10%3A17.osexp","C:\Users\ERP Testing Room\Desktop\Joanna\morph21","no","mono","no","18","no","white","no","yes","1080","legacy","24","24","C:/Users/ERP Testing Room/Desktop/Joanna/morph21/subject-144.csv","xpyriment","Jazzy James","3.1.4","0","/","NA","NA","NA","NA","space","/","554","NA","NA","NA","NA","149841","554","2","legacy","1024","2","48000","-16","BA_m21","144","even","FILL_W","DRUNK","2589","242840","241232","238098","152451","NA","NA","NA","NA","242835","241729","NA","240731","NA","240724","242835","2609","243240","NA","NA","241840","2589","2589","242240","240724","2589","241840","243240","morph21_Oliver/Morris","21","15214","25","yes","1280","19"
"350","84.6153846154","84.6153846154","604.884615385","604.884615385","black","no","xpyriment","legacy","legacy","0","202","NA","uniform","72404","1000","0.0138113916358","1","undefined","1","0","25","25","25","0","25","25","25","NA","25","25","0","25","NA","25","25","0","25","NA","25","NA","25","0","0","25","25","0","25","25","26","/","10/24/18 16:20:15","The main experiment item","yes","FIN__BA__M21__7%3A10%3A17.osexp","C:\Users\ERP Testing Room\Desktop\Joanna\morph21","no","mono","no","18","no","white","no","yes","1080","legacy","25","25","C:/Users/ERP Testing Room/Desktop/Joanna/morph21/subject-144.csv","xpyriment","Jazzy James","3.1.4","0","/","NA","NA","NA","NA","space","/","513","NA","NA","NA","NA","149841","513","2","legacy","1024","2","48000","-16","BA_m21","144","even","CW_L","SWIMMER","2589","246058","244457","238098","152451","NA","NA","NA","NA","246053","244954","NA","243957","NA","243952","246053","2609","246408","NA","NA","245058","2589","2589","245458","243952","2589","245058","246408","morph21_Oliver/Morris","22","15727","26","yes","1280","5"
"350","81.4814814815","81.4814814815","600.666666667","600.666666667","black","no","xpyriment","legacy","legacy","0","208","NA","uniform","78464","1000","0.0127446982055","0","undefined","0","0","26","26","26","0","26","26","26","NA","26","26","0","26","NA","26","26","0","26","NA","26","NA","26","0","0","26","26","0","26","26","27","z","10/24/18 16:20:15","The main experiment item","yes","FIN__BA__M21__7%3A10%3A17.osexp","C:\Users\ERP Testing Room\Desktop\Joanna\morph21","no","mono","no","18","no","white","no","yes","1080","legacy","26","26","C:/Users/ERP Testing Room/Desktop/Joanna/morph21/subject-144.csv","xpyriment","Jazzy James","3.1.4","0","/","NA","NA","NA","NA","space","/","491","NA","NA","NA","NA","149841","491","2","legacy","1024","2","48000","-16","BA_m21","144","even","FILL_NW","BLANTH","2589","250733","247616","249224","152451","NA","NA","NA","NA","246053","248113","NA","247116","NA","247107","249219","2609","251083","NA","NA","248224","2589","2589","248616","247107","2589","248224","251083","morph21_Oliver/Morris","22","16218","27","yes","1280","3"
"300","78.5714285714","78.5714285714","600.821428571","600.821428571","black","no","xpyriment","legacy","legacy","0","206","NA","uniform","67803","1000","0.0147486099435","0","undefined","0","0","27","27","27","0","27","27","27","NA","27","27","0","27","NA","27","27","0","27","NA","27","NA","27","0","0","27","27","0","27","27","28","z","10/24/18 16:20:15","The main experiment item","yes","FIN__BA__M21__7%3A10%3A17.osexp","C:\Users\ERP Testing Room\Desktop\Joanna\morph21","no","mono","no","18","no","white","no","yes","1080","legacy","27","27","C:/Users/ERP Testing Room/Desktop/Joanna/morph21/subject-144.csv","xpyriment","Jazzy James","3.1.4","0","/","NA","NA","NA","NA","space","/","605","NA","NA","NA","NA","149841","605","2","legacy","1024","2","48000","-16","BA_m21","144","even","NW_L_SIMP","TAXFUL","2589","253950","252366","249224","152451","NA","NA","NA","NA","246053","252864","NA","251866","NA","251860","253945","2609","254250","NA","NA","252950","2589","2589","253350","251860","2589","252950","254250","morph21_Oliver/Morris","22","16823","28","yes","1280","6"
"350","79.3103448276","79.3103448276","605.724137931","605.724137931","black","no","xpyriment","legacy","legacy","0","203","NA","uniform","63924","1000","0.0156435767474","1","undefined","1","0","28","28","28","0","28","28","28","NA","28","28","0","28","NA","28","28","0","28","NA","28","NA","28","0","0","28","28","0","28","28","29","z","10/24/18 16:20:15","The main experiment item","yes","FIN__BA__M21__7%3A10%3A17.osexp","C:\Users\ERP Testing Room\Desktop\Joanna\morph21","no","mono","no","18","no","white","no","yes","1080","legacy","28","28","C:/Users/ERP Testing Room/Desktop/Joanna/morph21/subject-144.csv","xpyriment","Jazzy James","3.1.4","0","z","NA","NA","NA","NA","space","z","743","NA","NA","NA","NA","149841","743","2","legacy","1024","2","48000","-16","BA_m21","144","even","NW_S_COMP","HEIGHTENGE","2589","257108","255525","249224","152451","NA","NA","NA","NA","257100","256022","NA","255025","NA","255015","257100","2609","257458","NA","NA","256108","2589","2589","256500","255015","2589","256108","257458","morph21_Oliver/Morris","23","17566","29","yes","1280","18"
"200","80","80","606.333333333","606.333333333","black","no","xpyriment","legacy","legacy","0","207","NA","uniform","67108","1000","0.0149013530429","1","undefined","1","0","29","29","29","0","29","29","29","NA","29","29","0","29","NA","29","29","0","29","NA","29","NA","29","0","0","29","29","0","29","29","30","/","10/24/18 16:20:15","The main experiment item","yes","FIN__BA__M21__7%3A10%3A17.osexp","C:\Users\ERP Testing Room\Desktop\Joanna\morph21","no","mono","no","18","no","white","no","yes","1080","legacy","29","29","C:/Users/ERP Testing Room/Desktop/Joanna/morph21/subject-144.csv","xpyriment","Jazzy James","3.1.4","0","/","NA","NA","NA","NA","space","/","624","NA","NA","NA","NA","149841","624","2","legacy","1024","2","48000","-16","BA_m21","144","even","FILL_W","BLEAK","2589","261767","258675","260258","152451","NA","NA","NA","NA","260250","259172","NA","258175","NA","258165","260250","2609","261967","NA","NA","259258","2589","2589","259650","258165","2589","259258","261967","morph21_Oliver/Morris","24","18190","30","yes","1280","5"
"250","80.6451612903","80.6451612903","604.838709677","604.838709677","black","no","xpyriment","legacy","legacy","0","208","NA","uniform","67193","1000","0.0148825026416","1","undefined","1","0","30","30","30","0","30","30","30","NA","30","30","0","30","NA","30","30","0","30","NA","30","NA","30","0","0","30","30","0","30","30","31","z","10/24/18 16:20:15","The main experiment item","yes","FIN__BA__M21__7%3A10%3A17.osexp","C:\Users\ERP Testing Room\Desktop\Joanna\morph21","no","mono","no","18","no","white","no","yes","1080","legacy","30","30","C:/Users/ERP Testing Room/Desktop/Joanna/morph21/subject-144.csv","xpyriment","Jazzy James","3.1.4","0","z","NA","NA","NA","NA","space","z","560","NA","NA","NA","NA","149841","560","2","legacy","1024","2","48000","-16","BA_m21","144","even","FILL_NW","DOWED","2589","264851","263251","260258","152451","NA","NA","NA","NA","264843","263748","NA","262751","NA","262747","264843","2609","265101","NA","NA","263851","2589","2589","264243","262747","2589","263851","265101","morph21_Oliver/Morris","25","18750","31","yes","1280","16"
"250","78.125","78.125","605.71875","605.71875","black","no","xpyriment","legacy","legacy","0","207","NA","uniform","64817","1000","0.0154280512828","0","undefined","0","0","31","31","31","0","31","31","31","NA","31","31","0","31","NA","31","31","0","31","NA","31","NA","31","0","0","31","31","0","31","31","32","/","10/24/18 16:20:15","The main experiment item","yes","FIN__BA__M21__7%3A10%3A17.osexp","C:\Users\ERP Testing Room\Desktop\Joanna\morph21","no","mono","no","18","no","white","no","yes","1080","legacy","31","31","C:/Users/ERP Testing Room/Desktop/Joanna/morph21/subject-144.csv","xpyriment","Jazzy James","3.1.4","0","z","NA","NA","NA","NA","space","z","633","NA","NA","NA","NA","149841","633","2","legacy","1024","2","48000","-16","BA_m21","144","even","FILL_W","TREAT","2589","268018","266435","260258","152451","NA","NA","NA","NA","264843","266932","NA","265935","NA","265931","268015","2609","268268","NA","NA","267018","2589","2589","267418","265931","2589","267018","268268","morph21_Oliver/Morris","25","19383","32","yes","1280","48"
"250","78.7878787879","78.7878787879","604.393939394","604.393939394","black","no","xpyriment","legacy","legacy","0","207","NA","uniform","72856","1000","0.0137257055013","1","undefined","1","0","32","32","32","0","32","32","32","NA","32","32","0","32","NA","32","32","0","32","NA","32","NA","32","0","0","32","32","0","32","32","33","/","10/24/18 16:20:15","The main experiment item","yes","FIN__BA__M21__7%3A10%3A17.osexp","C:\Users\ERP Testing Room\Desktop\Joanna\morph21","no","mono","no","18","no","white","no","yes","1080","legacy","32","32","C:/Users/ERP Testing Room/Desktop/Joanna/morph21/subject-144.csv","xpyriment","Jazzy James","3.1.4","0","/","NA","NA","NA","NA","space","/","562","NA","NA","NA","NA","149841","562","2","legacy","1024","2","48000","-16","BA_m21","144","even","FILL_W","FIERCE","2589","272693","269601","271185","152451","NA","NA","NA","NA","271179","270099","NA","269101","NA","269095","271179","2609","272943","NA","NA","270185","2589","2589","270576","269095","2589","270185","272943","morph21_Oliver/Morris","26","19945","33","yes","1280","24"
"250","79.4117647059","79.4117647059","607.647058824","607.647058824","black","no","xpyriment","legacy","legacy","0","206","NA","uniform","68961","1000","0.0145009498122","1","undefined","1","0","33","33","33","0","33","33","33","NA","33","33","0","33","NA","33","33","0","33","NA","33","NA","33","0","0","33","33","0","33","33","34","z","10/24/18 16:20:15","The main experiment item","yes","FIN__BA__M21__7%3A10%3A17.osexp","C:\Users\ERP Testing Room\Desktop\Joanna\morph21","no","mono","no","18","no","white","no","yes","1080","legacy","33","33","C:/Users/ERP Testing Room/Desktop/Joanna/morph21/subject-144.csv","xpyriment","Jazzy James","3.1.4","0","z","NA","NA","NA","NA","space","z","715","NA","NA","NA","NA","149841","715","2","legacy","1024","2","48000","-16","BA_m21","144","even","NW_L_SIMP","SMOOTHFUL","2589","275735","274135","271185","152451","NA","NA","NA","NA","275728","274632","NA","273635","NA","273630","275728","2609","275985","NA","NA","274735","2589","2589","275127","273629","2589","274735","275985","morph21_Oliver/Morris","27","20660","34","yes","1280","19"
"200","80","80","606","606","black","no","xpyriment","legacy","legacy","0","207","NA","uniform","69186","1000","0.0144537912294","1","undefined","1","0","34","34","34","0","34","34","34","NA","34","34","0","34","NA","34","34","0","34","NA","34","NA","34","0","0","34","34","0","34","34","35","/","10/24/18 16:20:15","The main experiment item","yes","FIN__BA__M21__7%3A10%3A17.osexp","C:\Users\ERP Testing Room\Desktop\Joanna\morph21","no","mono","no","18","no","white","no","yes","1080","legacy","34","34","C:/Users/ERP Testing Room/Desktop/Joanna/morph21/subject-144.csv","xpyriment","Jazzy James","3.1.4","0","/","NA","NA","NA","NA","space","/","550","NA","NA","NA","NA","149841","550","2","legacy","1024","2","48000","-16","BA_m21","144","even","FILL_W","GOLF","2589","278860","277277","271185","152451","NA","NA","NA","NA","278852","277774","NA","276777","NA","276770","278852","2609","279060","NA","NA","277860","2589","2589","278252","276770","2589","277860","279060","morph21_Oliver/Morris","28","21210","35","yes","1280","28"
"300","80.5555555556","80.5555555556","605.75","605.75","black","no","xpyriment","legacy","legacy","0","205","NA","uniform","68582","1000","0.014581085416","1","undefined","1","0","35","35","35","0","35","35","35","NA","35","35","0","35","NA","35","35","0","35","NA","35","NA","35","0","0","35","35","0","35","35","36","z","10/24/18 16:20:15","The main experiment item","yes","FIN__BA__M21__7%3A10%3A17.osexp","C:\Users\ERP Testing Room\Desktop\Joanna\morph21","no","mono","no","18","no","white","no","yes","1080","legacy","35","35","C:/Users/ERP Testing Room/Desktop/Joanna/morph21/subject-144.csv","xpyriment","Jazzy James","3.1.4","0","z","NA","NA","NA","NA","space","z","597","NA","NA","NA","NA","149841","597","2","legacy","1024","2","48000","-16","BA_m21","144","even","NW_S_SIMP","BOLTOUS","2589","283395","280303","281886","152451","NA","NA","NA","NA","281876","280800","NA","279803","NA","279796","281876","2609","283695","NA","NA","280886","2589","2589","281278","279795","2589","280886","283695","morph21_Oliver/Morris","29","21807","36","yes","1280","13"
"300","81.0810810811","81.0810810811","604.324324324","604.324324324","black","no","xpyriment","legacy","legacy","0","206","NA","uniform","67691","1000","0.0147730126605","1","undefined","1","0","36","36","36","0","36","36","36","NA","36","36","0","36","NA","36","36","0","36","NA","36","NA","36","0","0","36","36","0","36","36","37","z","10/24/18 16:20:15","The main experiment item","yes","FIN__BA__M21__7%3A10%3A17.osexp","C:\Users\ERP Testing Room\Desktop\Joanna\morph21","no","mono","no","18","no","white","no","yes","1080","legacy","36","36","C:/Users/ERP Testing Room/Desktop/Joanna/morph21/subject-144.csv","xpyriment","Jazzy James","3.1.4","0","z","NA","NA","NA","NA","space","z","553","NA","NA","NA","NA","149841","553","2","legacy","1024","2","48000","-16","BA_m21","144","even","NW_L_SIMP","BEGENCE","2589","286570","284978","281886","152451","NA","NA","NA","NA","286560","285475","NA","284478","NA","284474","286560","2609","286870","NA","NA","285570","2589","2589","285961","284474","2589","285570","286870","morph21_Oliver/Morris","30","22360","37","yes","1280","4"
"400","81.5789473684","81.5789473684","605.026315789","605.026315789","black","no","xpyriment","legacy","legacy","0","201","NA","uniform","69101","1000","0.0144715705996","1","undefined","1","0","37","37","37","0","37","37","37","NA","37","37","0","37","NA","37","37","0","37","NA","37","NA","37","0","0","37","37","0","37","37","38","/","10/24/18 16:20:15","The main experiment item","yes","FIN__BA__M21__7%3A10%3A17.osexp","C:\Users\ERP Testing Room\Desktop\Joanna\morph21","no","mono","no","18","no","white","no","yes","1080","legacy","37","37","C:/Users/ERP Testing Room/Desktop/Joanna/morph21/subject-144.csv","xpyriment","Jazzy James","3.1.4","0","/","NA","NA","NA","NA","space","/","631","NA","NA","NA","NA","149841","631","2","legacy","1024","2","48000","-16","BA_m21","144","even","CW_S","ALLOWANCE","2589","289795","288195","281886","152451","NA","NA","NA","NA","289792","288692","NA","287695","NA","287684","289792","2609","290195","NA","NA","288803","2589","2589","289195","287684","2589","288803","290195","morph21_Oliver/Morris","31","22991","38","yes","1280","5"
"400","82.0512820513","82.0512820513","608.871794872","608.871794872","black","no","xpyriment","legacy","legacy","0","208","NA","uniform","58446","1000","0.0171098107655","1","undefined","1","0","38","38","38","0","38","38","38","NA","38","38","0","38","NA","38","38","0","38","NA","38","NA","38","0","0","38","38","0","38","38","39","z","10/24/18 16:20:15","The main experiment item","yes","FIN__BA__M21__7%3A10%3A17.osexp","C:\Users\ERP Testing Room\Desktop\Joanna\morph21","no","mono","no","18","no","white","no","yes","1080","legacy","38","38","C:/Users/ERP Testing Room/Desktop/Joanna/morph21/subject-144.csv","xpyriment","Jazzy James","3.1.4","0","z","NA","NA","NA","NA","space","z","755","NA","NA","NA","NA","149841","755","2","legacy","1024","2","48000","-16","BA_m21","144","even","FILL_NW","HEND","2589","294587","291470","293078","152451","NA","NA","NA","NA","293076","291967","NA","290970","NA","290962","293076","2609","294987","NA","NA","292087","2589","2589","292478","290962","2589","292087","294987","morph21_Oliver/Morris","32","23746","39","yes","1280","28"
"250","82.5","82.5","606.35","606.35","black","no","xpyriment","legacy","legacy","0","205","NA","uniform","71762","1000","0.0139349516457","1","undefined","1","0","39","39","39","0","39","39","39","NA","39","39","0","39","NA","39","39","0","39","NA","39","NA","39","0","0","39","39","0","39","39","40","z","10/24/18 16:20:15","The main experiment item","yes","FIN__BA__M21__7%3A10%3A17.osexp","C:\Users\ERP Testing Room\Desktop\Joanna\morph21","no","mono","no","18","no","white","no","yes","1080","legacy","39","39","C:/Users/ERP Testing Room/Desktop/Joanna/morph21/subject-144.csv","xpyriment","Jazzy James","3.1.4","0","z","NA","NA","NA","NA","space","z","508","NA","NA","NA","NA","149841","508","2","legacy","1024","2","48000","-16","BA_m21","144","even","NW_S_SIMP","ZOOMFUL","2589","297880","296295","293078","152451","NA","NA","NA","NA","297870","296792","NA","295795","NA","295784","297870","2609","298130","NA","NA","296879","2589","2589","297271","295784","2589","296879","298130","morph21_Oliver/Morris","33","24254","40","yes","1280","19"
"300","82.9268292683","82.9268292683","607.536585366","607.536585366","black","no","xpyriment","legacy","legacy","0","207","NA","uniform","66961","1000","0.0149340660982","1","undefined","1","0","40","40","40","0","40","40","40","NA","40","40","0","40","NA","40","40","0","40","NA","40","NA","40","0","0","40","40","0","40","40","41","/","10/24/18 16:20:15","The main experiment item","yes","FIN__BA__M21__7%3A10%3A17.osexp","C:\Users\ERP Testing Room\Desktop\Joanna\morph21","no","mono","no","18","no","white","no","yes","1080","legacy","40","40","C:/Users/ERP Testing Room/Desktop/Joanna/morph21/subject-144.csv","xpyriment","Jazzy James","3.1.4","0","/","NA","NA","NA","NA","space","/","655","NA","NA","NA","NA","149841","655","2","legacy","1024","2","48000","-16","BA_m21","144","even","FILL_W","BALD","2589","300980","299363","293078","152451","NA","NA","NA","NA","300970","299860","NA","298863","NA","298857","300970","2609","301280","NA","NA","299980","2589","2589","300371","298857","2589","299980","301280","morph21_Oliver/Morris","34","24909","41","yes","1280","3"
"200","83.3333333333","83.3333333333","606.642857143","606.642857143","black","no","xpyriment","legacy","legacy","0","208","NA","uniform","64462","1000","0.0155130154199","1","undefined","1","0","41","41","41","0","41","41","41","NA","41","41","0","41","NA","41","41","0","41","NA","41","NA","41","0","0","41","41","0","41","41","42","z","10/24/18 16:20:15","The main experiment item","yes","FIN__BA__M21__7%3A10%3A17.osexp","C:\Users\ERP Testing Room\Desktop\Joanna\morph21","no","mono","no","18","no","white","no","yes","1080","legacy","41","41","C:/Users/ERP Testing Room/Desktop/Joanna/morph21/subject-144.csv","xpyriment","Jazzy James","3.1.4","0","z","NA","NA","NA","NA","space","z","570","NA","NA","NA","NA","149841","570","2","legacy","1024","2","48000","-16","BA_m21","144","even","FILL_NW","FALONS","2589","305622","302521","304113","152451","NA","NA","NA","NA","304103","303019","NA","302021","NA","302014","304103","2609","305822","NA","NA","303113","2589","2589","303505","302014","2589","303113","305822","morph21_Oliver/Morris","35","25479","42","yes","1280","19"
"200","83.7209302326","83.7209302326","603.953488372","603.953488372","black","no","xpyriment","legacy","legacy","0","204","NA","uniform","77143","1000","0.0129629389575","1","undefined","1","0","42","42","42","0","42","42","42","NA","42","42","0","42","NA","42","42","0","42","NA","42","NA","42","0","0","42","42","0","42","42","43","z","10/24/18 16:20:15","The main experiment item","yes","FIN__BA__M21__7%3A10%3A17.osexp","C:\Users\ERP Testing Room\Desktop\Joanna\morph21","no","mono","no","18","no","white","no","yes","1080","legacy","42","42","C:/Users/ERP Testing Room/Desktop/Joanna/morph21/subject-144.csv","xpyriment","Jazzy James","3.1.4","0","z","NA","NA","NA","NA","space","z","491","NA","NA","NA","NA","149841","491","2","legacy","1024","2","48000","-16","BA_m21","144","even","NW_L_COMP","PITCHODY","2589","308655","307055","304113","152451","NA","NA","NA","NA","308648","307552","NA","306555","NA","306549","308648","2609","308855","NA","NA","307655","2589","2589","308047","306549","2589","307655","308855","morph21_Oliver/Morris","36","25970","43","yes","1280","25"
"300","84.0909090909","84.0909090909","610.954545455","610.954545455","black","no","xpyriment","legacy","legacy","0","205","NA","uniform","56414","1000","0.0177260963591","1","undefined","1","0","43","43","43","0","43","43","43","NA","43","43","0","43","NA","43","43","0","43","NA","43","NA","43","0","0","43","43","0","43","43","44","z","10/24/18 16:20:15","The main experiment item","yes","FIN__BA__M21__7%3A10%3A17.osexp","C:\Users\ERP Testing Room\Desktop\Joanna\morph21","no","mono","no","18","no","white","no","yes","1080","legacy","43","43","C:/Users/ERP Testing Room/Desktop/Joanna/morph21/subject-144.csv","xpyriment","Jazzy James","3.1.4","0","z","NA","NA","NA","NA","space","z","912","NA","NA","NA","NA","149841","912","2","legacy","1024","2","48000","-16","BA_m21","144","even","NW_S_SIMP","NEXTNESS","2589","311722","310097","304113","152451","NA","NA","NA","NA","311714","310594","NA","309597","NA","309588","311714","2609","312022","NA","NA","310722","2589","2589","311113","309588","2589","310722","312022","morph21_Oliver/Morris","37","26882","44","yes","1280","9"
"400","84.4444444444","84.4444444444","610.844444444","610.844444444","black","no","xpyriment","legacy","legacy","0","206","NA","uniform","65823","1000","0.0151922580253","1","undefined","1","0","44","44","44","0","44","44","44","NA","44","44","0","44","NA","44","44","0","44","NA","44","NA","44","0","0","44","44","0","44","44","45","z","10/24/18 16:20:15","The main experiment item","yes","FIN__BA__M21__7%3A10%3A17.osexp","C:\Users\ERP Testing Room\Desktop\Joanna\morph21","no","mono","no","18","no","white","no","yes","1080","legacy","44","44","C:/Users/ERP Testing Room/Desktop/Joanna/morph21/subject-144.csv","xpyriment","Jazzy James","3.1.4","0","z","NA","NA","NA","NA","space","z","606","NA","NA","NA","NA","149841","606","2","legacy","1024","2","48000","-16","BA_m21","144","even","NW_L_SIMP","CLASSOUS","2589","316481","313372","314973","152451","NA","NA","NA","NA","314967","313869","NA","312872","NA","312864","314967","2609","316882","NA","NA","313972","2589","2589","314372","312864","2589","313972","316882","morph21_Oliver/Morris","38","27488","45","yes","1280","18"
"400","84.7826086957","84.7826086957","608","608","black","no","xpyriment","legacy","legacy","0","205","NA","uniform","66471","1000","0.0150441545937","1","undefined","1","0","45","45","45","0","45","45","45","NA","45","45","0","45","NA","45","45","0","45","NA","45","NA","45","0","0","45","45","0","45","45","46","z","10/24/18 16:20:15","The main experiment item","yes","FIN__BA__M21__7%3A10%3A17.osexp","C:\Users\ERP Testing Room\Desktop\Joanna\morph21","no","mono","no","18","no","white","no","yes","1080","legacy","45","45","C:/Users/ERP Testing Room/Desktop/Joanna/morph21/subject-144.csv","xpyriment","Jazzy James","3.1.4","0","z","NA","NA","NA","NA","space","z","480","NA","NA","NA","NA","149841","480","2","legacy","1024","2","48000","-16","BA_m21","144","even","NW_S_SIMP","SCHEMENESS","2589","319723","318140","314973","152451","NA","NA","NA","NA","319716","318637","NA","317640","NA","317631","319716","2609","320123","NA","NA","318723","2589","2589","319115","317631","2589","318723","320123","morph21_Oliver/Morris","39","27968","46","yes","1280","15"
"250","85.1063829787","85.1063829787","606.276595745","606.276595745","black","no","xpyriment","legacy","legacy","0","206","NA","uniform","78173","1000","0.0127921405089","1","undefined","1","0","46","46","46","0","46","46","46","NA","46","46","0","46","NA","46","46","0","46","NA","46","NA","46","0","0","46","46","0","46","46","47","z","10/24/18 16:20:15","The main experiment item","yes","FIN__BA__M21__7%3A10%3A17.osexp","C:\Users\ERP Testing Room\Desktop\Joanna\morph21","no","mono","no","18","no","white","no","yes","1080","legacy","46","46","C:/Users/ERP Testing Room/Desktop/Joanna/morph21/subject-144.csv","xpyriment","Jazzy James","3.1.4","0","z","NA","NA","NA","NA","space","z","527","NA","NA","NA","NA","149841","527","2","legacy","1024","2","48000","-16","BA_m21","144","even","NW_L_SIMP","BEARIST","2589","322940","321332","314973","152451","NA","NA","NA","NA","322935","321829","NA","320832","NA","320821","322935","2609","323190","NA","NA","321940","2589","2589","322340","320821","2589","321940","323190","morph21_Oliver/Morris","40","28495","47","yes","1280","25"
"400","85.4166666667","85.4166666667","604.020833333","604.020833333","black","no","xpyriment","legacy","legacy","0","205","NA","uniform","77625","1000","0.0128824476651","1","undefined","1","0","47","47","47","0","47","47","47","NA","47","47","0","47","NA","47","47","0","47","NA","47","NA","47","0","0","47","47","0","47","47","48","z","10/24/18 16:20:15","The main experiment item","yes","FIN__BA__M21__7%3A10%3A17.osexp","C:\Users\ERP Testing Room\Desktop\Joanna\morph21","no","mono","no","18","no","white","no","yes","1080","legacy","47","47","C:/Users/ERP Testing Room/Desktop/Joanna/morph21/subject-144.csv","xpyriment","Jazzy James","3.1.4","0","z","NA","NA","NA","NA","space","z","498","NA","NA","NA","NA","149841","498","2","legacy","1024","2","48000","-16","BA_m21","144","even","NW_S_SIMP","RAMPIZE","2589","327549","324448","326040","152451","NA","NA","NA","NA","326034","324946","NA","323948","NA","323937","326034","2609","327949","NA","NA","325040","2589","2589","325432","323937","2589","325040","327949","morph21_Oliver/Morris","41","28993","48","yes","1280","6"
"350","85.7142857143","85.7142857143","606.612244898","606.612244898","black","no","xpyriment","legacy","legacy","0","207","NA","uniform","63173","1000","0.0158295474332","1","undefined","1","0","48","48","48","0","48","48","48","NA","48","48","0","48","NA","48","48","0","48","NA","48","NA","48","0","0","48","48","0","48","48","49","/","10/24/18 16:20:15","The main experiment item","yes","FIN__BA__M21__7%3A10%3A17.osexp","C:\Users\ERP Testing Room\Desktop\Joanna\morph21","no","mono","no","18","no","white","no","yes","1080","legacy","48","48","C:/Users/ERP Testing Room/Desktop/Joanna/morph21/subject-144.csv","xpyriment","Jazzy James","3.1.4","0","/","NA","NA","NA","NA","space","/","731","NA","NA","NA","NA","149841","731","2","legacy","1024","2","48000","-16","BA_m21","144","even","FILL_W","WEIRD","2589","330799","329199","326040","152451","NA","NA","NA","NA","330789","329696","NA","328699","NA","328693","330789","2609","331149","NA","NA","329799","2589","2589","330190","328693","2589","329799","331149","morph21_Oliver/Morris","42","29724","49","yes","1280","2"
"300","84","84","606.84","606.84","black","no","xpyriment","legacy","legacy","0","201","NA","uniform","69380","1000","0.0144133756126","0","undefined","0","0","49","49","49","0","49","49","49","NA","49","49","0","49","NA","49","49","0","49","NA","49","NA","49","0","0","49","49","0","49","49","50","/","10/24/18 16:20:15","The main experiment item","yes","FIN__BA__M21__7%3A10%3A17.osexp","C:\Users\ERP Testing Room\Desktop\Joanna\morph21","no","mono","no","18","no","white","no","yes","1080","legacy","49","49","C:/Users/ERP Testing Room/Desktop/Joanna/morph21/subject-144.csv","xpyriment","Jazzy James","3.1.4","0","z","NA","NA","NA","NA","space","z","618","NA","NA","NA","NA","149841","618","2","legacy","1024","2","48000","-16","BA_m21","144","even","CW_S","INSISTENT","2589","334016","332433","326040","152451","NA","NA","NA","NA","330789","332930","NA","331932","NA","331923","334014","2609","334316","NA","NA","333025","2589","2589","333416","331923","2589","333025","334316","morph21_Oliver/Morris","42","30342","50","yes","1280","9"
"300","82.3529411765","82.3529411765","608.078431373","608.078431373","black","no","xpyriment","legacy","legacy","0","202","NA","uniform","65045","1000","0.0153739718656","0","undefined","0","0","50","50","50","0","50","50","50","NA","50","50","0","50","NA","50","50","0","50","NA","50","NA","50","0","0","50","50","0","50","50","51","/","10/24/18 16:20:15","The main experiment item","yes","FIN__BA__M21__7%3A10%3A17.osexp","C:\Users\ERP Testing Room\Desktop\Joanna\morph21","no","mono","no","18","no","white","no","yes","1080","legacy","50","50","C:/Users/ERP Testing Room/Desktop/Joanna/morph21/subject-144.csv","xpyriment","Jazzy James","3.1.4","0","z","NA","NA","NA","NA","space","z","670","NA","NA","NA","NA","149841","670","2","legacy","1024","2","48000","-16","BA_m21","144","even","CW_L","MADNESS","2589","338642","335525","337133","152451","NA","NA","NA","NA","330789","336022","NA","335025","NA","335019","337124","2609","338942","NA","NA","336133","2589","2589","336525","335019","2589","336133","338942","morph21_Oliver/Morris","42","31012","51","yes","1280","41"
"400","82.6923076923","82.6923076923","614.5","614.5","black","no","xpyriment","legacy","legacy","0","205","NA","uniform","59068","1000","0.0169296404144","1","undefined","1","0","51","51","51","0","51","51","51","NA","51","51","0","51","NA","51","51","0","51","NA","51","NA","51","0","0","51","51","0","51","51","52","z","10/24/18 16:20:15","The main experiment item","yes","FIN__BA__M21__7%3A10%3A17.osexp","C:\Users\ERP Testing Room\Desktop\Joanna\morph21","no","mono","no","18","no","white","no","yes","1080","legacy","51","51","C:/Users/ERP Testing Room/Desktop/Joanna/morph21/subject-144.csv","xpyriment","Jazzy James","3.1.4","0","z","NA","NA","NA","NA","space","z","942","NA","NA","NA","NA","149841","942","2","legacy","1024","2","48000","-16","BA_m21","144","even","NW_S_SIMP","MEDICALARY","2589","341725","340158","337133","152451","NA","NA","NA","NA","341722","340656","NA","339658","NA","339646","341722","2609","342125","NA","NA","340733","2589","2589","341125","339646","2589","340733","342125","morph21_Oliver/Morris","43","31954","52","yes","1280","18"
"250","83.0188679245","83.0188679245","616.509433962","616.509433962","black","no","xpyriment","legacy","legacy","0","203","NA","uniform","66445","1000","0.0150500413876","1","undefined","1","0","52","52","52","0","52","52","52","NA","52","52","0","52","NA","52","52","0","52","NA","52","NA","52","0","0","52","52","0","52","52","53","z","10/24/18 16:20:15","The main experiment item","yes","FIN__BA__M21__7%3A10%3A17.osexp","C:\Users\ERP Testing Room\Desktop\Joanna\morph21","no","mono","no","18","no","white","no","yes","1080","legacy","52","52","C:/Users/ERP Testing Room/Desktop/Joanna/morph21/subject-144.csv","xpyriment","Jazzy James","3.1.4","0","z","NA","NA","NA","NA","space","z","721","NA","NA","NA","NA","149841","721","2","legacy","1024","2","48000","-16","BA_m21","144","even","NW_S_COMP","TREASONIME","2589","345009","343409","337133","152451","NA","NA","NA","NA","344998","343906","NA","342909","NA","342901","344998","2609","345259","NA","NA","344009","2589","2589","344400","342901","2589","344009","345259","morph21_Oliver/Morris","44","32675","53","yes","1280","14"
"200","83.3333333333","83.3333333333","618.981481481","618.981481481","black","no","xpyriment","legacy","legacy","0","203","NA","uniform","70605","1000","0.0141633028822","1","undefined","1","0","53","53","53","0","53","53","53","NA","53","53","0","53","NA","53","53","0","53","NA","53","NA","53","0","0","53","53","0","53","53","54","z","10/24/18 16:20:15","The main experiment item","yes","FIN__BA__M21__7%3A10%3A17.osexp","C:\Users\ERP Testing Room\Desktop\Joanna\morph21","no","mono","no","18","no","white","no","yes","1080","legacy","53","53","C:/Users/ERP Testing Room/Desktop/Joanna/morph21/subject-144.csv","xpyriment","Jazzy James","3.1.4","0","z","NA","NA","NA","NA","space","z","750","NA","NA","NA","NA","149841","750","2","legacy","1024","2","48000","-16","BA_m21","144","even","NW_S_COMP","ADOPTISH","2589","349601","346475","348092","152451","NA","NA","NA","NA","348087","346973","NA","345975","NA","345967","348087","2609","349801","NA","NA","347092","2589","2589","347492","345967","2589","347092","349801","morph21_Oliver/Morris","45","33425","54","yes","1280","19"
"250","81.8181818182","81.8181818182","621.381818182","621.381818182","black","no","xpyriment","legacy","legacy","0","201","NA","uniform","67947","1000","0.0147173532312","0","undefined","0","0","54","54","54","0","54","54","54","NA","54","54","0","54","NA","54","54","0","54","NA","54","NA","54","0","0","54","54","0","54","54","55","/","10/24/18 16:20:15","The main experiment item","yes","FIN__BA__M21__7%3A10%3A17.osexp","C:\Users\ERP Testing Room\Desktop\Joanna\morph21","no","mono","no","18","no","white","no","yes","1080","legacy","54","54","C:/Users/ERP Testing Room/Desktop/Joanna/morph21/subject-144.csv","xpyriment","Jazzy James","3.1.4","0","z","NA","NA","NA","NA","space","z","751","NA","NA","NA","NA","149841","751","2","legacy","1024","2","48000","-16","BA_m21","144","even","CW_S","GRIMLY","2589","352652","351060","348092","152451","NA","NA","NA","NA","348087","351557","NA","350560","NA","350553","352643","2609","352902","NA","NA","351652","2589","2589","352043","350553","2589","351652","352902","morph21_Oliver/Morris","45","34176","55","yes","1280","31"
"200","82.1428571429","82.1428571429","624.071428571","624.071428571","black","no","xpyriment","legacy","legacy","0","201","NA","uniform","68496","1000","0.0145993926653","1","undefined","1","0","55","55","55","0","55","55","55","NA","55","55","0","55","NA","55","55","0","55","NA","55","NA","55","0","0","55","55","0","55","55","56","/","10/24/18 16:20:15","The main experiment item","yes","FIN__BA__M21__7%3A10%3A17.osexp","C:\Users\ERP Testing Room\Desktop\Joanna\morph21","no","mono","no","18","no","white","no","yes","1080","legacy","55","55","C:/Users/ERP Testing Room/Desktop/Joanna/morph21/subject-144.csv","xpyriment","Jazzy James","3.1.4","0","/","NA","NA","NA","NA","space","/","772","NA","NA","NA","NA","149841","772","2","legacy","1024","2","48000","-16","BA_m21","144","even","CW_S","ANGELIC","2589","355743","354135","348092","152451","NA","NA","NA","NA","355738","354632","NA","353635","NA","353628","355738","2609","355944","NA","NA","354743","2589","2589","355135","353628","2589","354743","355944","morph21_Oliver/Morris","46","34948","56","yes","1280","25"
"250","82.4561403509","82.4561403509","624.385964912","624.385964912","black","no","xpyriment","legacy","legacy","0","208","NA","uniform","71515","1000","0.0139830804726","1","undefined","1","0","56","56","56","0","56","56","56","NA","56","56","0","56","NA","56","56","0","56","NA","56","NA","56","0","0","56","56","0","56","56","57","z","10/24/18 16:20:15","The main experiment item","yes","FIN__BA__M21__7%3A10%3A17.osexp","C:\Users\ERP Testing Room\Desktop\Joanna\morph21","no","mono","no","18","no","white","no","yes","1080","legacy","56","56","C:/Users/ERP Testing Room/Desktop/Joanna/morph21/subject-144.csv","xpyriment","Jazzy James","3.1.4","0","z","NA","NA","NA","NA","space","z","642","NA","NA","NA","NA","149841","642","2","legacy","1024","2","48000","-16","BA_m21","144","even","FILL_NW","BUWL","2589","360294","357185","358785","152451","NA","NA","NA","NA","358777","357682","NA","356685","NA","356675","358777","2609","360544","NA","NA","357785","2589","2589","358177","356675","2589","357785","360544","morph21_Oliver/Morris","47","35590","57","yes","1280","9"
"250","82.7586206897","82.7586206897","623.396551724","623.396551724","black","no","xpyriment","legacy","legacy","0","207","NA","uniform","65552","1000","0.0152550646815","1","undefined","1","0","57","57","57","0","57","57","57","NA","57","57","0","57","NA","57","57","0","57","NA","57","NA","57","0","0","57","57","0","57","57","58","/","10/24/18 16:20:15","The main experiment item","yes","FIN__BA__M21__7%3A10%3A17.osexp","C:\Users\ERP Testing Room\Desktop\Joanna\morph21","no","mono","no","18","no","white","no","yes","1080","legacy","57","57","C:/Users/ERP Testing Room/Desktop/Joanna/morph21/subject-144.csv","xpyriment","Jazzy James","3.1.4","0","/","NA","NA","NA","NA","space","/","567","NA","NA","NA","NA","149841","567","2","legacy","1024","2","48000","-16","BA_m21","144","even","FILL_W","SOFT","2589","363419","361835","358785","152451","NA","NA","NA","NA","363415","362332","NA","361335","NA","361331","363415","2609","363669","NA","NA","362419","2589","2589","362819","361331","2589","362419","363669","morph21_Oliver/Morris","48","36157","58","yes","1280","43"
"200","83.0508474576","83.0508474576","624.661016949","624.661016949","black","no","xpyriment","legacy","legacy","0","203","NA","uniform","70477","1000","0.0141890262071","1","undefined","1","0","58","58","58","0","58","58","58","NA","58","58","0","58","NA","58","58","0","58","NA","58","NA","58","0","0","58","58","0","58","58","59","z","10/24/18 16:20:15","The main experiment item","yes","FIN__BA__M21__7%3A10%3A17.osexp","C:\Users\ERP Testing Room\Desktop\Joanna\morph21","no","mono","no","18","no","white","no","yes","1080","legacy","58","58","C:/Users/ERP Testing Room/Desktop/Joanna/morph21/subject-144.csv","xpyriment","Jazzy James","3.1.4","0","z","NA","NA","NA","NA","space","z","698","NA","NA","NA","NA","149841","698","2","legacy","1024","2","48000","-16","BA_m21","144","even","NW_S_COMP","PILLIME","2589","366552","364944","358785","152451","NA","NA","NA","NA","366546","365441","NA","364444","NA","364439","366546","2609","366752","NA","NA","365552","2589","2589","365944","364439","2589","365552","366752","morph21_Oliver/Morris","49","36855","59","yes","1280","13"
"300","83.3333333333","83.3333333333","625.45","625.45","black","no","xpyriment","legacy","legacy","0","201","NA","uniform","65828","1000","0.0151911040894","1","undefined","1","0","59","59","59","0","59","59","59","NA","59","59","0","59","NA","59","59","0","59","NA","59","NA","59","0","0","59","59","0","59","59","60","/","10/24/18 16:20:15","The main experiment item","yes","FIN__BA__M21__7%3A10%3A17.osexp","C:\Users\ERP Testing Room\Desktop\Joanna\morph21","no","mono","no","18","no","white","no","yes","1080","legacy","59","59","C:/Users/ERP Testing Room/Desktop/Joanna/morph21/subject-144.csv","xpyriment","Jazzy James","3.1.4","0","/","NA","NA","NA","NA","space","/","672","NA","NA","NA","NA","149841","672","2","legacy","1024","2","48000","-16","BA_m21","144","even","CW_S","DESTROYER","2589","371103","367995","369595","152451","NA","NA","NA","NA","369592","368492","NA","367495","NA","367485","369592","2609","371404","NA","NA","368603","2589","2589","368995","367485","2589","368603","371404","morph21_Oliver/Morris","50","37527","60","yes","1280","14"
"200","83.606557377","83.606557377","625.786885246","625.786885246","black","no","xpyriment","legacy","legacy","0","207","NA","uniform","70435","1000","0.0141974870448","1","undefined","1","0","60","60","60","0","60","60","60","NA","60","60","0","60","NA","60","60","0","60","NA","60","NA","60","0","0","60","60","0","60","60","61","/","10/24/18 16:20:15","The main experiment item","yes","FIN__BA__M21__7%3A10%3A17.osexp","C:\Users\ERP Testing Room\Desktop\Joanna\morph21","no","mono","no","18","no","white","no","yes","1080","legacy","60","60","C:/Users/ERP Testing Room/Desktop/Joanna/morph21/subject-144.csv","xpyriment","Jazzy James","3.1.4","0","/","NA","NA","NA","NA","space","/","646","NA","NA","NA","NA","149841","646","2","legacy","1024","2","48000","-16","BA_m21","144","even","FILL_W","FLOAT","2589","374237","372637","369595","152451","NA","NA","NA","NA","374228","373134","NA","372137","NA","372130","374228","2609","374437","NA","NA","373237","2589","2589","373628","372130","2589","373237","374437","morph21_Oliver/Morris","51","38173","61","yes","1280","30"
"400","82.2580645161","82.2580645161","627.483870968","627.483870968","black","no","xpyriment","legacy","legacy","0","208","NA","uniform","58901","1000","0.0169776404475","0","undefined","0","0","61","61","61","0","61","61","61","NA","61","61","0","61","NA","61","61","0","61","NA","61","NA","61","0","0","61","61","0","61","61","62","z","10/24/18 16:20:15","The main experiment item","yes","FIN__BA__M21__7%3A10%3A17.osexp","C:\Users\ERP Testing Room\Desktop\Joanna\morph21","no","mono","no","18","no","white","no","yes","1080","legacy","61","61","C:/Users/ERP Testing Room/Desktop/Joanna/morph21/subject-144.csv","xpyriment","Jazzy James","3.1.4","0","/","NA","NA","NA","NA","space","/","731","NA","NA","NA","NA","149841","731","2","legacy","1024","2","48000","-16","BA_m21","144","even","FILL_NW","VELT","2589","377312","375712","369595","152451","NA","NA","NA","NA","374228","376209","NA","375212","NA","375208","377307","2609","377712","NA","NA","376312","2589","2589","376712","375208","2589","376312","377712","morph21_Oliver/Morris","51","38904","62","yes","1280","46"
"400","82.5396825397","82.5396825397","628.095238095","628.095238095","black","no","xpyriment","legacy","legacy","0","203","NA","uniform","68471","1000","0.0146047231675","1","undefined","1","0","62","62","62","0","62","62","62","NA","62","62","0","62","NA","62","62","0","62","NA","62","NA","62","0","0","62","62","0","62","62","63","z","10/24/18 16:20:15","The main experiment item","yes","FIN__BA__M21__7%3A10%3A17.osexp","C:\Users\ERP Testing Room\Desktop\Joanna\morph21","no","mono","no","18","no","white","no","yes","1080","legacy","62","62","C:/Users/ERP Testing Room/Desktop/Joanna/morph21/subject-144.csv","xpyriment","Jazzy James","3.1.4","0","z","NA","NA","NA","NA","space","z","666","NA","NA","NA","NA","149841","666","2","legacy","1024","2","48000","-16","BA_m21","144","even","NW_S_COMP","ARIDILM","2589","382012","378920","380504","152451","NA","NA","NA","NA","380497","379418","NA","378420","NA","378415","380497","2609","382412","NA","NA","379504","2589","2589","379895","378415","2589","379504","382412","morph21_Oliver/Morris","52","39570","63","yes","1280","9"
"400","82.8125","82.8125","628.3125","628.3125","black","no","xpyriment","legacy","legacy","0","208","NA","uniform","73860","1000","0.0135391280802","1","undefined","1","0","63","63","63","0","63","63","63","NA","63","63","0","63","NA","63","63","0","63","NA","63","NA","63","0","0","63","63","0","63","63","64","z","10/24/18 16:20:15","The main experiment item","yes","FIN__BA__M21__7%3A10%3A17.osexp","C:\Users\ERP Testing Room\Desktop\Joanna\morph21","no","mono","no","18","no","white","no","yes","1080","legacy","63","63","C:/Users/ERP Testing Room/Desktop/Joanna/morph21/subject-144.csv","xpyriment","Jazzy James","3.1.4","0","z","NA","NA","NA","NA","space","z","642","NA","NA","NA","NA","149841","642","2","legacy","1024","2","48000","-16","BA_m21","144","even","FILL_NW","FROES","2589","385330","383737","380504","152451","NA","NA","NA","NA","385320","384234","NA","383237","NA","383234","385320","2609","385730","NA","NA","384329","2589","2589","384722","383234","2589","384329","385730","morph21_Oliver/Morris","53","40212","64","yes","1280","21"
"350","83.0769230769","83.0769230769","627.461538462","627.461538462","black","no","xpyriment","legacy","legacy","0","202","NA","uniform","65886","1000","0.0151777312327","1","undefined","1","0","64","64","64","0","64","64","64","NA","64","64","0","64","NA","64","64","0","64","NA","64","NA","64","0","0","64","64","0","64","64","65","/","10/24/18 16:20:15","The main experiment item","yes","FIN__BA__M21__7%3A10%3A17.osexp","C:\Users\ERP Testing Room\Desktop\Joanna\morph21","no","mono","no","18","no","white","no","yes","1080","legacy","64","64","C:/Users/ERP Testing Room/Desktop/Joanna/morph21/subject-144.csv","xpyriment","Jazzy James","3.1.4","0","/","NA","NA","NA","NA","space","/","573","NA","NA","NA","NA","149841","573","2","legacy","1024","2","48000","-16","BA_m21","144","even","CW_L","HUNTER","2589","388622","387013","380504","152451","NA","NA","NA","NA","388614","387511","NA","386513","NA","386506","388614","2609","388972","NA","NA","387622","2589","2589","388014","386506","2589","387622","388972","morph21_Oliver/Morris","54","40785","65","yes","1280","10"
"350","83.3333333333","83.3333333333","627.878787879","627.878787879","black","no","xpyriment","legacy","legacy","0","203","NA","uniform","60751","1000","0.0164606343928","1","undefined","1","0","65","65","65","0","65","65","65","NA","65","65","0","65","NA","65","65","0","65","NA","65","NA","65","0","0","65","65","0","65","65","66","z","10/24/18 16:20:15","The main experiment item","yes","FIN__BA__M21__7%3A10%3A17.osexp","C:\Users\ERP Testing Room\Desktop\Joanna\morph21","no","mono","no","18","no","white","no","yes","1080","legacy","65","65","C:/Users/ERP Testing Room/Desktop/Joanna/morph21/subject-144.csv","xpyriment","Jazzy James","3.1.4","0","z","NA","NA","NA","NA","space","z","655","NA","NA","NA","NA","149841","655","2","legacy","1024","2","48000","-16","BA_m21","144","even","NW_S_COMP","FIENDILM","2589","393272","390172","391764","152451","NA","NA","NA","NA","391758","390669","NA","389672","NA","389665","391758","2609","393622","NA","NA","390764","2589","2589","391155","389665","2589","390764","393622","morph21_Oliver/Morris","55","41440","66","yes","1280","24"
"200","83.5820895522","83.5820895522","627.791044776","627.791044776","black","no","xpyriment","legacy","legacy","0","202","NA","uniform","69545","1000","0.0143791789489","1","undefined","1","0","66","66","66","0","66","66","66","NA","66","66","0","66","NA","66","66","0","66","NA","66","NA","66","0","0","66","66","0","66","66","67","/","10/24/18 16:20:15","The main experiment item","yes","FIN__BA__M21__7%3A10%3A17.osexp","C:\Users\ERP Testing Room\Desktop\Joanna\morph21","no","mono","no","18","no","white","no","yes","1080","legacy","66","66","C:/Users/ERP Testing Room/Desktop/Joanna/morph21/subject-144.csv","xpyriment","Jazzy James","3.1.4","0","/","NA","NA","NA","NA","space","/","622","NA","NA","NA","NA","149841","622","2","legacy","1024","2","48000","-16","BA_m21","144","even","CW_L","SHAMEFUL","2589","396389","394805","391764","152451","NA","NA","NA","NA","396385","395303","NA","394305","NA","394300","396385","2609","396589","NA","NA","395389","2589","2589","395789","394300","2589","395389","396589","morph21_Oliver/Morris","56","42062","67","yes","1280","19"
"350","83.8235294118","83.8235294118","626.25","626.25","black","no","xpyriment","legacy","legacy","0","204","NA","uniform","68899","1000","0.0145139987518","1","undefined","1","0","67","67","67","0","67","67","67","NA","67","67","0","67","NA","67","67","0","67","NA","67","NA","67","0","0","67","67","0","67","67","68","z","10/24/18 16:20:15","The main experiment item","yes","FIN__BA__M21__7%3A10%3A17.osexp","C:\Users\ERP Testing Room\Desktop\Joanna\morph21","no","mono","no","18","no","white","no","yes","1080","legacy","67","67","C:/Users/ERP Testing Room/Desktop/Joanna/morph21/subject-144.csv","xpyriment","Jazzy James","3.1.4","0","z","NA","NA","NA","NA","space","z","523","NA","NA","NA","NA","149841","523","2","legacy","1024","2","48000","-16","BA_m21","144","even","NW_L_COMP","AGREELA","2589","399431","397847","391764","152451","NA","NA","NA","NA","399421","398344","NA","397347","NA","397335","399421","2609","399781","NA","NA","398431","2589","2589","398822","397335","2589","398431","399781","morph21_Oliver/Morris","57","42585","68","yes","1280","24"
"200","82.6086956522","82.6086956522","629.47826087","629.47826087","black","no","xpyriment","legacy","legacy","0","201","NA","uniform","60556","1000","0.0165136402669","0","undefined","0","0","68","68","68","0","68","68","68","NA","68","68","0","68","NA","68","68","0","68","NA","68","NA","68","0","0","68","68","0","68","68","69","/","10/24/18 16:20:15","The main experiment item","yes","FIN__BA__M21__7%3A10%3A17.osexp","C:\Users\ERP Testing Room\Desktop\Joanna\morph21","no","mono","no","18","no","white","no","yes","1080","legacy","68","68","C:/Users/ERP Testing Room/Desktop/Joanna/morph21/subject-144.csv","xpyriment","Jazzy James","3.1.4","0","z","NA","NA","NA","NA","space","z","849","NA","NA","NA","NA","149841","849","2","legacy","1024","2","48000","-16","BA_m21","144","even","CW_S","THRUSTER","2589","404215","401097","402707","152451","NA","NA","NA","NA","399421","401595","NA","400597","NA","400590","402702","2609","404415","NA","NA","401714","2589","2589","402106","400590","2589","401714","404415","morph21_Oliver/Morris","57","43434","69","yes","1280","24"
"250","82.8571428571","82.8571428571","628.3","628.3","black","no","xpyriment","legacy","legacy","0","203","NA","uniform","68923","1000","0.0145089447644","1","undefined","1","0","69","69","69","0","69","69","69","NA","69","69","0","69","NA","69","69","0","69","NA","69","NA","69","0","0","69","69","0","69","69","70","z","10/24/18 16:20:15","The main experiment item","yes","FIN__BA__M21__7%3A10%3A17.osexp","C:\Users\ERP Testing Room\Desktop\Joanna\morph21","no","mono","no","18","no","white","no","yes","1080","legacy","69","69","C:/Users/ERP Testing Room/Desktop/Joanna/morph21/subject-144.csv","xpyriment","Jazzy James","3.1.4","0","z","NA","NA","NA","NA","space","z","547","NA","NA","NA","NA","149841","547","2","legacy","1024","2","48000","-16","BA_m21","144","even","NW_S_COMP","BEEREL","2589","407224","405632","402707","152451","NA","NA","NA","NA","407214","406129","NA","405132","NA","405122","407214","2609","407474","NA","NA","406224","2589","2589","406615","405122","2589","406224","407474","morph21_Oliver/Morris","58","43981","70","yes","1280","5"
"200","83.0985915493","83.0985915493","629.492957746","629.492957746","black","no","xpyriment","legacy","legacy","0","202","NA","uniform","64571","1000","0.0154868284524","1","undefined","1","0","70","70","70","0","70","70","70","NA","70","70","0","70","NA","70","70","0","70","NA","70","NA","70","0","0","70","70","0","70","70","71","/","10/24/18 16:20:15","The main experiment item","yes","FIN__BA__M21__7%3A10%3A17.osexp","C:\Users\ERP Testing Room\Desktop\Joanna\morph21","no","mono","no","18","no","white","no","yes","1080","legacy","70","70","C:/Users/ERP Testing Room/Desktop/Joanna/morph21/subject-144.csv","xpyriment","Jazzy James","3.1.4","0","/","NA","NA","NA","NA","space","/","713","NA","NA","NA","NA","149841","713","2","legacy","1024","2","48000","-16","BA_m21","144","even","CW_L","VERBAL","2589","410274","408707","402707","152451","NA","NA","NA","NA","410268","409204","NA","408207","NA","408200","410268","2609","410474","NA","NA","409274","2589","2589","409665","408200","2589","409274","410474","morph21_Oliver/Morris","59","44694","71","yes","1280","50"
"200","83.3333333333","83.3333333333","628.5","628.5","black","no","xpyriment","legacy","legacy","0","203","NA","uniform","75419","1000","0.0132592582771","1","undefined","1","0","71","71","71","0","71","71","71","NA","71","71","0","71","NA","71","71","0","71","NA","71","NA","71","0","0","71","71","0","71","71","72","z","10/24/18 16:20:15","The main experiment item","yes","FIN__BA__M21__7%3A10%3A17.osexp","C:\Users\ERP Testing Room\Desktop\Joanna\morph21","no","mono","no","18","no","white","no","yes","1080","legacy","71","71","C:/Users/ERP Testing Room/Desktop/Joanna/morph21/subject-144.csv","xpyriment","Jazzy James","3.1.4","0","z","NA","NA","NA","NA","space","z","558","NA","NA","NA","NA","149841","558","2","legacy","1024","2","48000","-16","BA_m21","144","even","NW_S_COMP","ELMILT","2589","414866","411774","413357","152451","NA","NA","NA","NA","413352","412271","NA","411274","NA","411264","413352","2609","415066","NA","NA","412357","2589","2589","412757","411264","2589","412357","415066","morph21_Oliver/Morris","60","45252","72","yes","1280","10"
"250","83.5616438356","83.5616438356","628.315068493","628.315068493","black","no","xpyriment","legacy","legacy","0","202","NA","uniform","71135","1000","0.0140577774654","1","undefined","1","0","72","72","72","0","72","72","72","NA","72","72","0","72","NA","72","72","0","72","NA","72","NA","72","0","0","72","72","0","72","72","73","/","10/24/18 16:20:15","The main experiment item","yes","FIN__BA__M21__7%3A10%3A17.osexp","C:\Users\ERP Testing Room\Desktop\Joanna\morph21","no","mono","no","18","no","white","no","yes","1080","legacy","72","72","C:/Users/ERP Testing Room/Desktop/Joanna/morph21/subject-144.csv","xpyriment","Jazzy James","3.1.4","0","/","NA","NA","NA","NA","space","/","615","NA","NA","NA","NA","149841","615","2","legacy","1024","2","48000","-16","BA_m21","144","even","CW_L","LAUGHING","2589","417899","416316","413357","152451","NA","NA","NA","NA","417894","416813","NA","415816","NA","415808","417894","2609","418149","NA","NA","416899","2589","2589","417299","415808","2589","416899","418149","morph21_Oliver/Morris","61","45867","73","yes","1280","27"
"400","83.7837837838","83.7837837838","627.945945946","627.945945946","black","no","xpyriment","legacy","legacy","0","204","NA","uniform","69147","1000","0.014461943396","1","undefined","1","0","73","73","73","0","73","73","73","NA","73","73","0","73","NA","73","73","0","73","NA","73","NA","73","0","0","73","73","0","73","73","74","z","10/24/18 16:20:15","The main experiment item","yes","FIN__BA__M21__7%3A10%3A17.osexp","C:\Users\ERP Testing Room\Desktop\Joanna\morph21","no","mono","no","18","no","white","no","yes","1080","legacy","73","73","C:/Users/ERP Testing Room/Desktop/Joanna/morph21/subject-144.csv","xpyriment","Jazzy James","3.1.4","0","z","NA","NA","NA","NA","space","z","601","NA","NA","NA","NA","149841","601","2","legacy","1024","2","48000","-16","BA_m21","144","even","NW_L_COMP","ANGELITH","2589","421050","419458","413357","152451","NA","NA","NA","NA","421042","419955","NA","418957","NA","418948","421042","2609","421450","NA","NA","420050","2589","2589","420442","418948","2589","420050","421450","morph21_Oliver/Morris","62","46468","74","yes","1280","7"
"250","84","84","628.013333333","628.013333333","black","no","xpyriment","legacy","legacy","0","207","NA","uniform","65731","1000","0.0152135217782","undefined","undefined","1","0","74","74","74","0","74","74","74","NA","74","74","0","74","NA","74","74","0","74","NA","74","NA","74","0","0","74","74","0","74","74","75","/","10/24/18 16:20:15","The main experiment item","yes","FIN__BA__M21__7%3A10%3A17.osexp","C:\Users\ERP Testing Room\Desktop\Joanna\morph21","no","mono","no","18","no","white","no","yes","1080","legacy","74","74","C:/Users/ERP Testing Room/Desktop/Joanna/morph21/subject-144.csv","xpyriment","Jazzy James","3.1.4","0","space","space","NA","NA","NA","space","/","7481","7481","NA","NA","NA","149841","633","2","legacy","1024","2","48000","-16","BA_m21","144","even","FILL_W","SMOKE","2589","425759","422667","424250","152451","426017","NA","NA","NA","424246","423164","NA","422167","NA","422157","424246","2609","433499","NA","NA","423250","2589","2589","423650","422157","2589","423250","426009","morph21_Oliver/Morris","63","47101","75","yes","1280","50"
"250","84.2105263158","84.2105263158","628.118421053","628.118421053","black","no","xpyriment","legacy","legacy","0","207","NA","uniform","71271","1000","0.0140309522807","1","undefined","1","0","75","75","75","0","75","75","75","NA","75","75","0","75","NA","75","75","0","75","NA","75","NA","75","0","0","75","75","0","75","75","76","/","10/24/18 16:20:15","The main experiment item","yes","FIN__BA__M21__7%3A10%3A17.osexp","C:\Users\ERP Testing Room\Desktop\Joanna\morph21","no","mono","no","18","no","white","no","yes","1080","legacy","75","75","C:/Users/ERP Testing Room/Desktop/Joanna/morph21/subject-144.csv","xpyriment","Jazzy James","3.1.4","0","/","space","NA","NA","NA","space","/","636","7481","NA","NA","NA","149841","636","2","legacy","1024","2","48000","-16","BA_m21","144","even","FILL_W","PREACH","2589","436318","434734","424250","152451","426017","NA","NA","NA","436308","435231","NA","434234","NA","434226","436308","2609","436568","NA","NA","435318","2589","2589","435709","434226","2589","435318","436568","morph21_Oliver/Morris","64","47737","76","yes","1280","7"
"400","84.4155844156","84.4155844156","628.714285714","628.714285714","black","no","xpyriment","legacy","legacy","0","204","NA","uniform","63939","1000","0.0156399067862","1","undefined","1","0","76","76","76","0","76","76","76","NA","76","76","0","76","NA","76","76","0","76","NA","76","NA","76","0","0","76","76","0","76","76","77","z","10/24/18 16:20:15","The main experiment item","yes","FIN__BA__M21__7%3A10%3A17.osexp","C:\Users\ERP Testing Room\Desktop\Joanna\morph21","no","mono","no","18","no","white","no","yes","1080","legacy","76","76","C:/Users/ERP Testing Room/Desktop/Joanna/morph21/subject-144.csv","xpyriment","Jazzy James","3.1.4","0","z","space","NA","NA","NA","space","z","674","7481","NA","NA","NA","149841","674","2","legacy","1024","2","48000","-16","BA_m21","144","even","NW_L_COMP","PASSMANT","2589","439377","437777","424250","152451","426017","NA","NA","NA","439373","438274","NA","437277","NA","437271","439373","2609","439777","NA","NA","438385","2589","2589","438777","437271","2589","438385","439777","morph21_Oliver/Morris","65","48411","77","yes","1280","14"
"200","84.6153846154","84.6153846154","627.423076923","627.423076923","black","no","xpyriment","legacy","legacy","0","208","NA","uniform","70826","1000","0.0141191088019","1","undefined","1","0","77","77","77","0","77","77","77","NA","77","77","0","77","NA","77","77","0","77","NA","77","NA","77","0","0","77","77","0","77","77","78","z","10/24/18 16:20:15","The main experiment item","yes","FIN__BA__M21__7%3A10%3A17.osexp","C:\Users\ERP Testing Room\Desktop\Joanna\morph21","no","mono","no","18","no","white","no","yes","1080","legacy","77","77","C:/Users/ERP Testing Room/Desktop/Joanna/morph21/subject-144.csv","xpyriment","Jazzy James","3.1.4","0","z","space","NA","NA","NA","space","z","528","7481","NA","NA","NA","149841","528","2","legacy","1024","2","48000","-16","BA_m21","144","even","FILL_NW","CINDS","2589","444136","441044","442627","152451","426017","NA","NA","NA","442618","441541","NA","440544","NA","440537","442618","2609","444336","NA","NA","441627","2589","2589","442019","440537","2589","441627","444336","morph21_Oliver/Morris","66","48939","78","yes","1280","6"
"250","83.5443037975","83.5443037975","624.443037975","624.443037975","black","no","xpyriment","legacy","legacy","0","207","NA","uniform","75994","1000","0.0131589336","0","undefined","0","0","78","78","78","0","78","78","78","NA","78","78","0","78","NA","78","78","0","78","NA","78","NA","78","0","0","78","78","0","78","78","79","/","10/24/18 16:20:15","The main experiment item","yes","FIN__BA__M21__7%3A10%3A17.osexp","C:\Users\ERP Testing Room\Desktop\Joanna\morph21","no","mono","no","18","no","white","no","yes","1080","legacy","78","78","C:/Users/ERP Testing Room/Desktop/Joanna/morph21/subject-144.csv","xpyriment","Jazzy James","3.1.4","0","z","space","NA","NA","NA","space","z","392","7481","NA","NA","NA","149841","392","2","legacy","1024","2","48000","-16","BA_m21","144","even","FILL_W","PACK","2589","447211","445627","442627","152451","426017","NA","NA","NA","442618","446124","NA","445127","NA","445119","447205","2609","447461","NA","NA","446211","2589","2589","446602","445118","2589","446211","447461","morph21_Oliver/Morris","66","49331","79","yes","1280","41"
"400","83.75","83.75","624.3625","624.3625","black","no","xpyriment","legacy","legacy","0","208","NA","uniform","70196","1000","0.014245825973","1","undefined","1","0","79","79","79","0","79","79","79","NA","79","79","0","79","NA","79","79","0","79","NA","79","NA","79","0","0","79","79","0","79","79","80","z","10/24/18 16:20:15","The main experiment item","yes","FIN__BA__M21__7%3A10%3A17.osexp","C:\Users\ERP Testing Room\Desktop\Joanna\morph21","no","mono","no","18","no","white","no","yes","1080","legacy","79","79","C:/Users/ERP Testing Room/Desktop/Joanna/morph21/subject-144.csv","xpyriment","Jazzy James","3.1.4","0","z","space","NA","NA","NA","space","z","618","7481","NA","NA","NA","149841","618","2","legacy","1024","2","48000","-16","BA_m21","144","even","FILL_NW","SOISE","2589","450352","448752","442627","152451","426017","NA","NA","NA","450348","449250","NA","448252","NA","448244","450348","2609","450753","NA","NA","449352","2589","2589","449752","448244","2589","449352","450753","morph21_Oliver/Morris","67","49949","80","yes","1280","43"
"350","83.950617284","83.950617284","626.925925926","626.925925926","black","no","xpyriment","legacy","legacy","0","206","NA","uniform","61755","1000","0.016193020808","1","undefined","1","0","80","80","80","0","80","80","80","NA","80","80","0","80","NA","80","80","0","80","NA","80","NA","80","0","0","80","80","0","80","80","81","z","10/24/18 16:20:15","The main experiment item","yes","FIN__BA__M21__7%3A10%3A17.osexp","C:\Users\ERP Testing Room\Desktop\Joanna\morph21","no","mono","no","18","no","white","no","yes","1080","legacy","80","80","C:/Users/ERP Testing Room/Desktop/Joanna/morph21/subject-144.csv","xpyriment","Jazzy James","3.1.4","0","z","space","NA","NA","NA","space","z","832","7481","NA","NA","NA","149841","832","2","legacy","1024","2","48000","-16","BA_m21","144","even","NW_L_SIMP","HABITIC","2589","455095","451978","453586","152451","426017","NA","NA","NA","453582","452475","NA","451478","NA","451470","453582","2609","455446","NA","NA","452586","2589","2589","452986","451470","2589","452586","455446","morph21_Oliver/Morris","68","50781","81","yes","1280","7"
"350","84.1463414634","84.1463414634","626.512195122","626.512195122","black","no","xpyriment","legacy","legacy","0","201","NA","uniform","67248","1000","0.0148703307162","1","undefined","1","0","81","81","81","0","81","81","81","NA","81","81","0","81","NA","81","81","0","81","NA","81","NA","81","0","0","81","81","0","81","81","82","/","10/24/18 16:20:15","The main experiment item","yes","FIN__BA__M21__7%3A10%3A17.osexp","C:\Users\ERP Testing Room\Desktop\Joanna\morph21","no","mono","no","18","no","white","no","yes","1080","legacy","81","81","C:/Users/ERP Testing Room/Desktop/Joanna/morph21/subject-144.csv","xpyriment","Jazzy James","3.1.4","0","/","space","NA","NA","NA","space","/","593","7481","NA","NA","NA","149841","593","2","legacy","1024","2","48000","-16","BA_m21","144","even","CW_S","TEACHER","2589","458354","456729","453586","152451","426017","NA","NA","NA","458350","457226","NA","456229","NA","456218","458350","2609","458704","NA","NA","457362","2589","2589","457754","456218","2589","457362","458704","morph21_Oliver/Morris","69","51374","82","yes","1280","23"
"350","84.3373493976","84.3373493976","625.722891566","625.722891566","black","no","xpyriment","legacy","legacy","0","203","NA","uniform","69748","1000","0.0143373286689","1","undefined","1","0","82","82","82","0","82","82","82","NA","82","82","0","82","NA","82","82","0","82","NA","82","NA","82","0","0","82","82","0","82","82","83","z","10/24/18 16:20:15","The main experiment item","yes","FIN__BA__M21__7%3A10%3A17.osexp","C:\Users\ERP Testing Room\Desktop\Joanna\morph21","no","mono","no","18","no","white","no","yes","1080","legacy","82","82","C:/Users/ERP Testing Room/Desktop/Joanna/morph21/subject-144.csv","xpyriment","Jazzy James","3.1.4","0","z","space","NA","NA","NA","space","z","561","7481","NA","NA","NA","149841","561","2","legacy","1024","2","48000","-16","BA_m21","144","even","NW_S_COMP","HUMIDOES","2589","461562","459946","453586","152451","426017","NA","NA","NA","461558","460443","NA","459446","NA","459440","461558","2609","461912","NA","NA","460562","2589","2589","460962","459440","2589","460562","461912","morph21_Oliver/Morris","70","51935","83","yes","1280","25"
"300","83.3333333333","83.3333333333","624.535714286","624.535714286","black","no","xpyriment","legacy","legacy","0","202","NA","uniform","73777","1000","0.0135543597598","0","undefined","0","0","83","83","83","0","83","83","83","NA","83","83","0","83","NA","83","83","0","83","NA","83","NA","83","0","0","83","83","0","83","83","84","/","10/24/18 16:20:15","The main experiment item","yes","FIN__BA__M21__7%3A10%3A17.osexp","C:\Users\ERP Testing Room\Desktop\Joanna\morph21","no","mono","no","18","no","white","no","yes","1080","legacy","83","83","C:/Users/ERP Testing Room/Desktop/Joanna/morph21/subject-144.csv","xpyriment","Jazzy James","3.1.4","0","z","space","NA","NA","NA","space","z","526","7481","NA","NA","NA","149841","526","2","legacy","1024","2","48000","-16","BA_m21","144","even","CW_L","DAMPISH","2589","466338","463229","464829","152451","426017","NA","NA","NA","461558","463726","NA","462729","NA","462720","464820","2609","466638","NA","NA","463829","2589","2589","464221","462720","2589","463829","466638","morph21_Oliver/Morris","70","52461","84","yes","1280","28"
"300","83.5294117647","83.5294117647","623.988235294","623.988235294","black","no","xpyriment","legacy","legacy","0","203","NA","uniform","65811","1000","0.0151950281868","1","undefined","1","0","84","84","84","0","84","84","84","NA","84","84","0","84","NA","84","84","0","84","NA","84","NA","84","0","0","84","84","0","84","84","85","z","10/24/18 16:20:15","The main experiment item","yes","FIN__BA__M21__7%3A10%3A17.osexp","C:\Users\ERP Testing Room\Desktop\Joanna\morph21","no","mono","no","18","no","white","no","yes","1080","legacy","84","84","C:/Users/ERP Testing Room/Desktop/Joanna/morph21/subject-144.csv","xpyriment","Jazzy James","3.1.4","0","z","space","NA","NA","NA","space","z","578","7481","NA","NA","NA","149841","578","2","legacy","1024","2","48000","-16","BA_m21","144","even","NW_S_COMP","FIGEL","2589","469504","467871","464829","152451","426017","NA","NA","NA","469494","468368","NA","467371","NA","467363","469494","2609","469804","NA","NA","468504","2589","2589","468896","467363","2589","468504","469804","morph21_Oliver/Morris","71","53039","85","yes","1280","4"
"300","83.7209302326","83.7209302326","623.38372093","623.38372093","black","no","xpyriment","legacy","legacy","0","207","NA","uniform","74019","1000","0.0135100447182","1","undefined","1","0","85","85","85","0","85","85","85","NA","85","85","0","85","NA","85","85","0","85","NA","85","NA","85","0","0","85","85","0","85","85","86","/","10/24/18 16:20:15","The main experiment item","yes","FIN__BA__M21__7%3A10%3A17.osexp","C:\Users\ERP Testing Room\Desktop\Joanna\morph21","no","mono","no","18","no","white","no","yes","1080","legacy","85","85","C:/Users/ERP Testing Room/Desktop/Joanna/morph21/subject-144.csv","xpyriment","Jazzy James","3.1.4","0","/","space","NA","NA","NA","space","/","572","7481","NA","NA","NA","149841","572","2","legacy","1024","2","48000","-16","BA_m21","144","even","FILL_W","BAKE","2589","472680","471096","464829","152451","426017","NA","NA","NA","472676","471593","NA","470596","NA","470590","472676","2609","472981","NA","NA","471679","2589","2589","472080","470590","2589","471679","472981","morph21_Oliver/Morris","72","53611","86","yes","1280","29"
"300","83.908045977","83.908045977","623.873563218","623.873563218","black","no","xpyriment","legacy","legacy","0","202","NA","uniform","60368","1000","0.0165650675855","1","undefined","1","0","86","86","86","0","86","86","86","NA","86","86","0","86","NA","86","86","0","86","NA","86","NA","86","0","0","86","86","0","86","86","87","/","10/24/18 16:20:15","The main experiment item","yes","FIN__BA__M21__7%3A10%3A17.osexp","C:\Users\ERP Testing Room\Desktop\Joanna\morph21","no","mono","no","18","no","white","no","yes","1080","legacy","86","86","C:/Users/ERP Testing Room/Desktop/Joanna/morph21/subject-144.csv","xpyriment","Jazzy James","3.1.4","0","/","space","NA","NA","NA","space","/","666","7481","NA","NA","NA","149841","666","2","legacy","1024","2","48000","-16","BA_m21","144","even","CW_L","COMPOSER","2589","477406","474289","475897","152451","426017","NA","NA","NA","475890","474786","NA","473789","NA","473779","475890","2609","477706","NA","NA","474897","2589","2589","475289","473779","2589","474897","477706","morph21_Oliver/Morris","73","54277","87","yes","1280","6"
"200","84.0909090909","84.0909090909","624.056818182","624.056818182","black","no","xpyriment","legacy","legacy","0","202","NA","uniform","68485","1000","0.0146017376068","1","undefined","1","0","87","87","87","0","87","87","87","NA","87","87","0","87","NA","87","87","0","87","NA","87","NA","87","0","0","87","87","0","87","87","88","/","10/24/18 16:20:15","The main experiment item","yes","FIN__BA__M21__7%3A10%3A17.osexp","C:\Users\ERP Testing Room\Desktop\Joanna\morph21","no","mono","no","18","no","white","no","yes","1080","legacy","87","87","C:/Users/ERP Testing Room/Desktop/Joanna/morph21/subject-144.csv","xpyriment","Jazzy James","3.1.4","0","/","space","NA","NA","NA","space","/","640","7481","NA","NA","NA","149841","640","2","legacy","1024","2","48000","-16","BA_m21","144","even","CW_L","SAILOR","2589","480531","478931","475897","152451","426017","NA","NA","NA","480528","479428","NA","478431","NA","478425","480528","2609","480731","NA","NA","479539","2589","2589","479931","478425","2589","479539","480731","morph21_Oliver/Morris","74","54917","88","yes","1280","43"
"200","84.2696629213","84.2696629213","623.191011236","623.191011236","black","no","xpyriment","legacy","legacy","0","203","NA","uniform","77057","1000","0.0129774063356","1","undefined","1","0","88","88","88","0","88","88","88","NA","88","88","0","88","NA","88","88","0","88","NA","88","NA","88","0","0","88","88","0","88","88","89","z","10/24/18 16:20:15","The main experiment item","yes","FIN__BA__M21__7%3A10%3A17.osexp","C:\Users\ERP Testing Room\Desktop\Joanna\morph21","no","mono","no","18","no","white","no","yes","1080","legacy","88","88","C:/Users/ERP Testing Room/Desktop/Joanna/morph21/subject-144.csv","xpyriment","Jazzy James","3.1.4","0","z","space","NA","NA","NA","space","z","547","7481","NA","NA","NA","149841","547","2","legacy","1024","2","48000","-16","BA_m21","144","even","NW_S_COMP","HAPPENANGE","2589","483648","482031","475897","152451","426017","NA","NA","NA","483640","482528","NA","481531","NA","481524","483640","2609","483848","NA","NA","482648","2589","2589","483039","481524","2589","482648","483848","morph21_Oliver/Morris","75","55464","89","yes","1280","2"
"400","83.3333333333","83.3333333333","621.677777778","621.677777778","black","no","xpyriment","legacy","legacy","0","202","NA","uniform","75710","1000","0.0132082948091","0","undefined","0","0","89","89","89","0","89","89","89","NA","89","89","0","89","NA","89","89","0","89","NA","89","NA","89","0","0","89","89","0","89","89","90","/","10/24/18 16:20:15","The main experiment item","yes","FIN__BA__M21__7%3A10%3A17.osexp","C:\Users\ERP Testing Room\Desktop\Joanna\morph21","no","mono","no","18","no","white","no","yes","1080","legacy","89","89","C:/Users/ERP Testing Room/Desktop/Joanna/morph21/subject-144.csv","xpyriment","Jazzy James","3.1.4","0","z","space","NA","NA","NA","space","z","487","7481","NA","NA","NA","149841","487","2","legacy","1024","2","48000","-16","BA_m21","144","even","CW_L","WRONGLY","2589","488223","485131","486714","152451","426017","NA","NA","NA","483640","485628","NA","484631","NA","484626","486712","2609","488623","NA","NA","485723","2589","2589","486114","484625","2589","485723","488623","morph21_Oliver/Morris","75","55951","90","yes","1280","37"
"200","83.5164835165","83.5164835165","621.10989011","621.10989011","black","no","xpyriment","legacy","legacy","0","208","NA","uniform","72533","1000","0.0137868280645","1","undefined","1","0","90","90","90","0","90","90","90","NA","90","90","0","90","NA","90","90","0","90","NA","90","NA","90","0","0","90","90","0","90","90","91","z","10/24/18 16:20:15","The main experiment item","yes","FIN__BA__M21__7%3A10%3A17.osexp","C:\Users\ERP Testing Room\Desktop\Joanna\morph21","no","mono","no","18","no","white","no","yes","1080","legacy","90","90","C:/Users/ERP Testing Room/Desktop/Joanna/morph21/subject-144.csv","xpyriment","Jazzy James","3.1.4","0","z","space","NA","NA","NA","space","z","570","7481","NA","NA","NA","149841","570","2","legacy","1024","2","48000","-16","BA_m21","144","even","FILL_NW","HOITS","2589","491457","489866","486714","152451","426017","NA","NA","NA","491451","490363","NA","489365","NA","489357","491451","2609","491657","NA","NA","490457","2589","2589","490849","489357","2589","490457","491657","morph21_Oliver/Morris","76","56521","91","yes","1280","30"
