"ITI","acc","accuracy","average_response_time","avg_rt","background","bidi","canvas_backend","clock_backend","color_backend","compensation","cond_trig","condtrigtime","coordinates","coroutines_cycles","coroutines_duration","coroutines_mean_cycle_duration","correct","correct_instructions_1","correct_new_keyboard_response_1","count_AB_m21","count_ITI","count_blank_screen","count_blink_screen","count_block1","count_break1","count_break2","count_break3_1","count_canvas","count_correct_trigger","count_def_chain","count_end_screen","count_fixation_1","count_getting_started","count_inc_counter","count_incorrect_trigger","count_instructions_1","count_logger","count_logscript","count_new_coroutines","count_new_inline_script","count_new_keyboard_response_1","count_reset_counter_prep","count_reset_counter_run","count_responsescreen","count_sequence","count_start_trigger","count_target_present","count_word_trigger","counter","cresp","datetime","description","disable_garbage_collection","experiment_file","experiment_path","font_bold","font_family","font_italic","font_size","font_underline","foreground","form_clicks","fullscreen","height","keyboard_backend","live_row","live_row_block1","logfile","mouse_backend","opensesame_codename","opensesame_version","repeat_cycle","response","response_break1","response_break2","response_break3_1","response_end_screen","response_instructions_1","response_new_keyboard_response_1","response_time","response_time_break1","response_time_break2","response_time_break3_1","response_time_end_screen","response_time_instructions_1","response_time_new_keyboard_response_1","round_decimals","sampler_backend","sound_buf_size","sound_channels","sound_freq","sound_sample_size","start","subject_nr","subject_parity","targ_type","target","time_AB_m21","time_ITI","time_blank_screen","time_blink_screen","time_block1","time_break1","time_break2","time_break3_1","time_canvas","time_correct_trigger","time_def_chain","time_end_screen","time_fixation_1","time_getting_started","time_inc_counter","time_incorrect_trigger","time_instructions_1","time_logger","time_logscript","time_new_inline_script","time_new_keyboard_response_1","time_reset_counter_prep","time_reset_counter_run","time_responsescreen","time_sequence","time_start_trigger","time_target_present","time_word_trigger","title","total_correct","total_response_time","total_responses","uniform_coordinates","width","word_trig"
"350","100","100","411","411","black","no","xpyriment","legacy","legacy","0","202","NA","uniform","71913","1000","0.0139056915996","1","undefined","1","0","0","0","0","0","0","0","0","NA","0","0","0","0","NA","0","0","0","0","NA","0","NA","0","0","0","0","0","0","0","0","1","/","08/01/18 15:05:49","The main experiment item","yes","FIN__AB__M21__7%3A10%3A17.osexp","C:\Users\ERP Testing Room\Desktop\Joanna\morph21","no","mono","no","18","no","white","no","yes","1080","legacy","0","0","C:/Users/ERP Testing Room/Desktop/Joanna/morph21/subject-134.csv","xpyriment","Jazzy James","3.1.4","0","/","NA","NA","NA","NA","space","/","411","NA","NA","NA","NA","141707","411","2","legacy","1024","2","48000","-16","AB_m21","134","even","CW_L","PAINTER","2332","146919","145336","NA","144058","NA","NA","NA","NA","146916","145833","NA","144830","NA","144759","146916","2351","147269","NA","NA","145927","2333","2333","146319","144759","2333","145927","147269","morph21_Oliver/Morris","1","411","1","yes","1280","18"
"400","100","100","490.5","490.5","black","no","xpyriment","legacy","legacy","0","201","NA","uniform","69281","1000","0.014433971796","1","undefined","1","0","1","1","1","0","1","1","1","NA","1","1","0","1","NA","1","1","0","1","NA","1","NA","1","0","0","1","1","0","1","1","2","/","08/01/18 15:05:49","The main experiment item","yes","FIN__AB__M21__7%3A10%3A17.osexp","C:\Users\ERP Testing Room\Desktop\Joanna\morph21","no","mono","no","18","no","white","no","yes","1080","legacy","1","1","C:/Users/ERP Testing Room/Desktop/Joanna/morph21/subject-134.csv","xpyriment","Jazzy James","3.1.4","0","/","NA","NA","NA","NA","space","/","570","NA","NA","NA","NA","141707","570","2","legacy","1024","2","48000","-16","AB_m21","134","even","CW_S","DIETARY","2332","150136","148544","NA","144058","NA","NA","NA","NA","150133","149041","NA","148044","NA","148036","150133","2351","150536","NA","NA","149144","2333","2333","149536","148036","2333","149144","150536","morph21_Oliver/Morris","2","981","2","yes","1280","6"
"350","100","100","487.333333333","487.333333333","black","no","xpyriment","legacy","legacy","0","202","NA","uniform","76564","1000","0.0130609686014","1","undefined","1","0","2","2","2","0","2","2","2","NA","2","2","0","2","NA","2","2","0","2","NA","2","NA","2","0","0","2","2","0","2","2","3","/","08/01/18 15:05:49","The main experiment item","yes","FIN__AB__M21__7%3A10%3A17.osexp","C:\Users\ERP Testing Room\Desktop\Joanna\morph21","no","mono","no","18","no","white","no","yes","1080","legacy","2","2","C:/Users/ERP Testing Room/Desktop/Joanna/morph21/subject-134.csv","xpyriment","Jazzy James","3.1.4","0","/","NA","NA","NA","NA","space","/","481","NA","NA","NA","NA","141707","481","2","legacy","1024","2","48000","-16","AB_m21","134","even","CW_L","BOMBER","2332","154845","151754","153337","144058","NA","NA","NA","NA","153334","152251","NA","151254","NA","151243","153334","2351","155196","NA","NA","152345","2333","2333","152737","151243","2333","152345","155196","morph21_Oliver/Morris","3","1462","3","yes","1280","7"
"300","100","100","506.25","506.25","black","no","xpyriment","legacy","legacy","0","201","NA","uniform","68868","1000","0.0145205320323","1","undefined","1","0","3","3","3","0","3","3","3","NA","3","3","0","3","NA","3","3","0","3","NA","3","NA","3","0","0","3","3","0","3","3","4","/","08/01/18 15:05:49","The main experiment item","yes","FIN__AB__M21__7%3A10%3A17.osexp","C:\Users\ERP Testing Room\Desktop\Joanna\morph21","no","mono","no","18","no","white","no","yes","1080","legacy","3","3","C:/Users/ERP Testing Room/Desktop/Joanna/morph21/subject-134.csv","xpyriment","Jazzy James","3.1.4","0","/","NA","NA","NA","NA","space","/","563","NA","NA","NA","NA","141707","563","2","legacy","1024","2","48000","-16","AB_m21","134","even","CW_S","DETECTABLE","2332","158087","156495","153337","144058","NA","NA","NA","NA","158084","156993","NA","155995","NA","155991","158084","2351","158387","NA","NA","157095","2333","2333","157487","155991","2333","157095","158387","morph21_Oliver/Morris","4","2025","4","yes","1280","1"
"250","100","100","494.2","494.2","black","no","xpyriment","legacy","legacy","0","201","NA","uniform","73243","1000","0.013653181874","1","undefined","1","0","4","4","4","0","4","4","4","NA","4","4","0","4","NA","4","4","0","4","NA","4","NA","4","0","0","4","4","0","4","4","5","/","08/01/18 15:05:49","The main experiment item","yes","FIN__AB__M21__7%3A10%3A17.osexp","C:\Users\ERP Testing Room\Desktop\Joanna\morph21","no","mono","no","18","no","white","no","yes","1080","legacy","4","4","C:/Users/ERP Testing Room/Desktop/Joanna/morph21/subject-134.csv","xpyriment","Jazzy James","3.1.4","0","/","NA","NA","NA","NA","space","/","446","NA","NA","NA","NA","141707","446","2","legacy","1024","2","48000","-16","AB_m21","134","even","CW_S","SEEKER","2332","161212","159629","153337","144058","NA","NA","NA","NA","161203","160126","NA","159129","NA","159121","161203","2351","161462","NA","NA","160212","2333","2333","160604","159121","2333","160212","161462","morph21_Oliver/Morris","5","2471","5","yes","1280","16"
"300","100","100","500","500","black","no","xpyriment","legacy","legacy","0","208","NA","uniform","73684","1000","0.013571467347","1","undefined","1","0","5","5","5","0","5","5","5","NA","5","5","0","5","NA","5","5","0","5","NA","5","NA","5","0","0","5","5","0","5","5","6","z","08/01/18 15:05:49","The main experiment item","yes","FIN__AB__M21__7%3A10%3A17.osexp","C:\Users\ERP Testing Room\Desktop\Joanna\morph21","no","mono","no","18","no","white","no","yes","1080","legacy","5","5","C:/Users/ERP Testing Room/Desktop/Joanna/morph21/subject-134.csv","xpyriment","Jazzy James","3.1.4","0","z","NA","NA","NA","NA","space","z","529","NA","NA","NA","NA","141707","529","2","legacy","1024","2","48000","-16","AB_m21","134","even","FILL_NW","BAFED","2332","165846","162704","164337","144058","NA","NA","NA","NA","164334","163201","NA","162204","NA","162195","164334","2351","166146","NA","NA","163337","2333","2333","163737","162195","2333","163337","166146","morph21_Oliver/Morris","6","3000","6","yes","1280","1"
"350","85.7142857143","85.7142857143","481.714285714","481.714285714","black","no","xpyriment","legacy","legacy","0","205","NA","uniform","70138","1000","0.014257606433","0","undefined","0","0","6","6","6","0","6","6","6","NA","6","6","0","6","NA","6","6","0","6","NA","6","NA","6","0","0","6","6","0","6","6","7","z","08/01/18 15:05:49","The main experiment item","yes","FIN__AB__M21__7%3A10%3A17.osexp","C:\Users\ERP Testing Room\Desktop\Joanna\morph21","no","mono","no","18","no","white","no","yes","1080","legacy","6","6","C:/Users/ERP Testing Room/Desktop/Joanna/morph21/subject-134.csv","xpyriment","Jazzy James","3.1.4","0","/","NA","NA","NA","NA","space","/","372","NA","NA","NA","NA","141707","372","2","legacy","1024","2","48000","-16","AB_m21","134","even","NW_S_SIMP","ACREMANT","2332","169047","167463","164337","144058","NA","NA","NA","NA","164334","167960","NA","166963","NA","166954","169040","2351","169397","NA","NA","168047","2333","2333","168439","166954","2333","168047","169397","morph21_Oliver/Morris","6","3372","7","yes","1280","16"
"400","87.5","87.5","477.625","477.625","black","no","xpyriment","legacy","legacy","0","207","NA","uniform","73481","1000","0.0136089601394","1","undefined","1","0","7","7","7","0","7","7","7","NA","7","7","0","7","NA","7","7","0","7","NA","7","NA","7","0","0","7","7","0","7","7","8","/","08/01/18 15:05:49","The main experiment item","yes","FIN__AB__M21__7%3A10%3A17.osexp","C:\Users\ERP Testing Room\Desktop\Joanna\morph21","no","mono","no","18","no","white","no","yes","1080","legacy","7","7","C:/Users/ERP Testing Room/Desktop/Joanna/morph21/subject-134.csv","xpyriment","Jazzy James","3.1.4","0","/","NA","NA","NA","NA","space","/","449","NA","NA","NA","NA","141707","449","2","legacy","1024","2","48000","-16","AB_m21","134","even","FILL_W","CHIP","2332","172305","170705","164337","144058","NA","NA","NA","NA","172297","171202","NA","170205","NA","170195","172297","2351","172706","NA","NA","171305","2333","2333","171697","170195","2333","171305","172706","morph21_Oliver/Morris","7","3821","8","yes","1280","11"
"350","88.8888888889","88.8888888889","470.444444444","470.444444444","black","no","xpyriment","legacy","legacy","0","201","NA","uniform","71941","1000","0.0139002793956","1","undefined","1","0","8","8","8","0","8","8","8","NA","8","8","0","8","NA","8","8","0","8","NA","8","NA","8","0","0","8","8","0","8","8","9","/","08/01/18 15:05:49","The main experiment item","yes","FIN__AB__M21__7%3A10%3A17.osexp","C:\Users\ERP Testing Room\Desktop\Joanna\morph21","no","mono","no","18","no","white","no","yes","1080","legacy","8","8","C:/Users/ERP Testing Room/Desktop/Joanna/morph21/subject-134.csv","xpyriment","Jazzy James","3.1.4","0","/","NA","NA","NA","NA","space","/","413","NA","NA","NA","NA","141707","413","2","legacy","1024","2","48000","-16","AB_m21","134","even","CW_S","TOASTER","2332","177097","173989","175589","144058","NA","NA","NA","NA","175585","174486","NA","173489","NA","173485","175585","2351","177447","NA","NA","174589","2333","2333","174989","173485","2333","174589","177447","morph21_Oliver/Morris","8","4234","9","yes","1280","10"
"250","90","90","455.5","455.5","black","no","xpyriment","legacy","legacy","0","201","NA","uniform","76621","1000","0.0130512522677","1","undefined","1","0","9","9","9","0","9","9","9","NA","9","9","0","9","NA","9","9","0","9","NA","9","NA","9","0","0","9","9","0","9","9","10","/","08/01/18 15:05:49","The main experiment item","yes","FIN__AB__M21__7%3A10%3A17.osexp","C:\Users\ERP Testing Room\Desktop\Joanna\morph21","no","mono","no","18","no","white","no","yes","1080","legacy","9","9","C:/Users/ERP Testing Room/Desktop/Joanna/morph21/subject-134.csv","xpyriment","Jazzy James","3.1.4","0","/","NA","NA","NA","NA","space","/","321","NA","NA","NA","NA","141707","321","2","legacy","1024","2","48000","-16","AB_m21","134","even","CW_S","JAILER","2332","180281","178681","175589","144058","NA","NA","NA","NA","180274","179178","NA","178181","NA","178176","180274","2351","180531","NA","NA","179281","2333","2333","179672","178176","2333","179281","180531","morph21_Oliver/Morris","9","4555","10","yes","1280","13"
"350","81.8181818182","81.8181818182","451.090909091","451.090909091","black","no","xpyriment","legacy","legacy","0","208","NA","uniform","76450","1000","0.0130804447351","0","undefined","0","0","10","10","10","0","10","10","10","NA","10","10","0","10","NA","10","10","0","10","NA","10","NA","10","0","0","10","10","0","10","10","11","z","08/01/18 15:05:49","The main experiment item","yes","FIN__AB__M21__7%3A10%3A17.osexp","C:\Users\ERP Testing Room\Desktop\Joanna\morph21","no","mono","no","18","no","white","no","yes","1080","legacy","10","10","C:/Users/ERP Testing Room/Desktop/Joanna/morph21/subject-134.csv","xpyriment","Jazzy James","3.1.4","0","/","NA","NA","NA","NA","space","/","407","NA","NA","NA","NA","141707","407","2","legacy","1024","2","48000","-16","AB_m21","134","even","FILL_NW","HEAS","2332","183531","181939","175589","144058","NA","NA","NA","NA","180274","182436","NA","181439","NA","181430","183524","2351","183881","NA","NA","182531","2333","2333","182923","181429","2333","182531","183881","morph21_Oliver/Morris","9","4962","11","yes","1280","26"
"400","75","75","444.083333333","444.083333333","black","no","xpyriment","legacy","legacy","0","208","NA","uniform","74075","1000","0.0134998312521","0","undefined","0","0","11","11","11","0","11","11","11","NA","11","11","0","11","NA","11","11","0","11","NA","11","NA","11","0","0","11","11","0","11","11","12","z","08/01/18 15:05:49","The main experiment item","yes","FIN__AB__M21__7%3A10%3A17.osexp","C:\Users\ERP Testing Room\Desktop\Joanna\morph21","no","mono","no","18","no","white","no","yes","1080","legacy","11","11","C:/Users/ERP Testing Room/Desktop/Joanna/morph21/subject-134.csv","xpyriment","Jazzy James","3.1.4","0","/","NA","NA","NA","NA","space","/","367","NA","NA","NA","NA","141707","367","2","legacy","1024","2","48000","-16","AB_m21","134","even","FILL_NW","GIKE","2332","188232","185123","186724","144058","NA","NA","NA","NA","180274","185620","NA","184623","NA","184613","186718","2351","188632","NA","NA","185724","2333","2333","186115","184613","2333","185724","188632","morph21_Oliver/Morris","9","5329","12","yes","1280","24"
"350","76.9230769231","76.9230769231","440","440","black","no","xpyriment","legacy","legacy","0","207","NA","uniform","73492","1000","0.0136069232025","1","undefined","1","0","12","12","12","0","12","12","12","NA","12","12","0","12","NA","12","12","0","12","NA","12","NA","12","0","0","12","12","0","12","12","13","/","08/01/18 15:05:49","The main experiment item","yes","FIN__AB__M21__7%3A10%3A17.osexp","C:\Users\ERP Testing Room\Desktop\Joanna\morph21","no","mono","no","18","no","white","no","yes","1080","legacy","12","12","C:/Users/ERP Testing Room/Desktop/Joanna/morph21/subject-134.csv","xpyriment","Jazzy James","3.1.4","0","/","NA","NA","NA","NA","space","/","391","NA","NA","NA","NA","141707","391","2","legacy","1024","2","48000","-16","AB_m21","134","even","FILL_W","FAINT","2332","191482","189857","186724","144058","NA","NA","NA","NA","191479","190354","NA","189357","NA","189353","191479","2351","191832","NA","NA","190491","2333","2333","190882","189353","2333","190491","191832","morph21_Oliver/Morris","10","5720","13","yes","1280","31"
"200","71.4285714286","71.4285714286","438.142857143","438.142857143","black","no","xpyriment","legacy","legacy","0","202","NA","uniform","71089","1000","0.0140668739186","0","undefined","0","0","13","13","13","0","13","13","13","NA","13","13","0","13","NA","13","13","0","13","NA","13","NA","13","0","0","13","13","0","13","13","14","/","08/01/18 15:05:49","The main experiment item","yes","FIN__AB__M21__7%3A10%3A17.osexp","C:\Users\ERP Testing Room\Desktop\Joanna\morph21","no","mono","no","18","no","white","no","yes","1080","legacy","13","13","C:/Users/ERP Testing Room/Desktop/Joanna/morph21/subject-134.csv","xpyriment","Jazzy James","3.1.4","0","z","NA","NA","NA","NA","space","z","414","NA","NA","NA","NA","141707","414","2","legacy","1024","2","48000","-16","AB_m21","134","even","CW_L","COLLECTOR","2332","194724","193141","186724","144058","NA","NA","NA","NA","191479","193638","NA","192641","NA","192633","194718","2351","194924","NA","NA","193724","2333","2333","194116","192633","2333","193724","194924","morph21_Oliver/Morris","10","6134","14","yes","1280","46"
"300","66.6666666667","66.6666666667","442.933333333","442.933333333","black","no","xpyriment","legacy","legacy","0","206","NA","uniform","70144","1000","0.0142563868613","0","undefined","0","0","14","14","14","0","14","14","14","NA","14","14","0","14","NA","14","14","0","14","NA","14","NA","14","0","0","14","14","0","14","14","15","z","08/01/18 15:05:49","The main experiment item","yes","FIN__AB__M21__7%3A10%3A17.osexp","C:\Users\ERP Testing Room\Desktop\Joanna\morph21","no","mono","no","18","no","white","no","yes","1080","legacy","14","14","C:/Users/ERP Testing Room/Desktop/Joanna/morph21/subject-134.csv","xpyriment","Jazzy James","3.1.4","0","/","NA","NA","NA","NA","space","/","510","NA","NA","NA","NA","141707","510","2","legacy","1024","2","48000","-16","AB_m21","134","even","NW_L_SIMP","BANDADY","2332","199224","196124","197716","144058","NA","NA","NA","NA","191479","196621","NA","195624","NA","195617","197711","2351","199524","NA","NA","196716","2333","2333","197116","195617","2333","196716","199524","morph21_Oliver/Morris","10","6644","15","yes","1280","3"
"400","68.75","68.75","441.9375","441.9375","black","no","xpyriment","legacy","legacy","0","202","NA","uniform","75467","1000","0.0132508248638","1","undefined","1","0","15","15","15","0","15","15","15","NA","15","15","0","15","NA","15","15","0","15","NA","15","NA","15","0","0","15","15","0","15","15","16","/","08/01/18 15:05:49","The main experiment item","yes","FIN__AB__M21__7%3A10%3A17.osexp","C:\Users\ERP Testing Room\Desktop\Joanna\morph21","no","mono","no","18","no","white","no","yes","1080","legacy","15","15","C:/Users/ERP Testing Room/Desktop/Joanna/morph21/subject-134.csv","xpyriment","Jazzy James","3.1.4","0","/","NA","NA","NA","NA","space","/","427","NA","NA","NA","NA","141707","427","2","legacy","1024","2","48000","-16","AB_m21","134","even","CW_L","CLOUDLESS","2332","202374","200783","197716","144058","NA","NA","NA","NA","202366","201280","NA","200283","NA","200279","202366","2351","202774","NA","NA","201375","2333","2333","201766","200279","2333","201374","202774","morph21_Oliver/Morris","11","7071","16","yes","1280","33"
"300","64.7058823529","64.7058823529","445.647058824","445.647058824","black","no","xpyriment","legacy","legacy","0","201","NA","uniform","72311","1000","0.0138291546238","0","undefined","0","0","16","16","16","0","16","16","16","NA","16","16","0","16","NA","16","16","0","16","NA","16","NA","16","0","0","16","16","0","16","16","17","/","08/01/18 15:05:49","The main experiment item","yes","FIN__AB__M21__7%3A10%3A17.osexp","C:\Users\ERP Testing Room\Desktop\Joanna\morph21","no","mono","no","18","no","white","no","yes","1080","legacy","16","16","C:/Users/ERP Testing Room/Desktop/Joanna/morph21/subject-134.csv","xpyriment","Jazzy James","3.1.4","0","z","NA","NA","NA","NA","space","z","505","NA","NA","NA","NA","141707","505","2","legacy","1024","2","48000","-16","AB_m21","134","even","CW_S","BUYER","2332","205642","204059","197716","144058","NA","NA","NA","NA","202366","204556","NA","203551","NA","203541","205635","2351","205942","NA","NA","204642","2333","2333","205034","203541","2333","204642","205942","morph21_Oliver/Morris","11","7576","17","yes","1280","21"
"300","61.1111111111","61.1111111111","444.333333333","444.333333333","black","no","xpyriment","legacy","legacy","0","205","NA","uniform","72525","1000","0.0137883488452","0","undefined","0","0","17","17","17","0","17","17","17","NA","17","17","0","17","NA","17","17","0","17","NA","17","NA","17","0","0","17","17","0","17","17","18","z","08/01/18 15:05:49","The main experiment item","yes","FIN__AB__M21__7%3A10%3A17.osexp","C:\Users\ERP Testing Room\Desktop\Joanna\morph21","no","mono","no","18","no","white","no","yes","1080","legacy","17","17","C:/Users/ERP Testing Room/Desktop/Joanna/morph21/subject-134.csv","xpyriment","Jazzy James","3.1.4","0","/","NA","NA","NA","NA","space","/","422","NA","NA","NA","NA","141707","422","2","legacy","1024","2","48000","-16","AB_m21","134","even","NW_S_SIMP","HELMETOES","2332","210201","207109","208692","144058","NA","NA","NA","NA","202366","207606","NA","206609","NA","206602","208687","2351","210501","NA","NA","207692","2333","2333","208092","206602","2333","207692","210501","morph21_Oliver/Morris","11","7998","18","yes","1280","14"
"200","63.1578947368","63.1578947368","447.210526316","447.210526316","black","no","xpyriment","legacy","legacy","0","201","NA","uniform","62719","1000","0.0159441317623","1","undefined","1","0","18","18","18","0","18","18","18","NA","18","18","0","18","NA","18","18","0","18","NA","18","NA","18","0","0","18","18","0","18","18","19","/","08/01/18 15:05:49","The main experiment item","yes","FIN__AB__M21__7%3A10%3A17.osexp","C:\Users\ERP Testing Room\Desktop\Joanna\morph21","no","mono","no","18","no","white","no","yes","1080","legacy","18","18","C:/Users/ERP Testing Room/Desktop/Joanna/morph21/subject-134.csv","xpyriment","Jazzy James","3.1.4","0","/","NA","NA","NA","NA","space","/","499","NA","NA","NA","NA","141707","499","2","legacy","1024","2","48000","-16","AB_m21","134","even","CW_S","ENJOYMENT","2332","213343","211743","208692","144058","NA","NA","NA","NA","213339","212240","NA","211243","NA","211235","213339","2351","213543","NA","NA","212343","2333","2333","212743","211235","2333","212343","213543","morph21_Oliver/Morris","12","8497","19","yes","1280","40"
"250","65","65","448.25","448.25","black","no","xpyriment","legacy","legacy","0","204","NA","uniform","58201","1000","0.0171818353637","1","undefined","1","0","19","19","19","0","19","19","19","NA","19","19","0","19","NA","19","19","0","19","NA","19","NA","19","0","0","19","19","0","19","19","20","z","08/01/18 15:05:49","The main experiment item","yes","FIN__AB__M21__7%3A10%3A17.osexp","C:\Users\ERP Testing Room\Desktop\Joanna\morph21","no","mono","no","18","no","white","no","yes","1080","legacy","19","19","C:/Users/ERP Testing Room/Desktop/Joanna/morph21/subject-134.csv","xpyriment","Jazzy James","3.1.4","0","z","NA","NA","NA","NA","space","z","468","NA","NA","NA","NA","141707","468","2","legacy","1024","2","48000","-16","AB_m21","134","even","NW_L_COMP","BREAKITY","2332","216534","214909","208692","144058","NA","NA","NA","NA","216529","215407","NA","214409","NA","214405","216529","2351","216784","NA","NA","215534","2333","2333","215934","214405","2333","215534","216784","morph21_Oliver/Morris","13","8965","20","yes","1280","23"
"300","66.6666666667","66.6666666667","461.19047619","461.19047619","black","no","xpyriment","legacy","legacy","0","207","NA","uniform","55406","1000","0.0180485867957","1","undefined","1","0","20","20","20","0","20","20","20","NA","20","20","0","20","NA","20","20","0","20","NA","20","NA","20","0","0","20","20","0","20","20","21","/","08/01/18 15:05:49","The main experiment item","yes","FIN__AB__M21__7%3A10%3A17.osexp","C:\Users\ERP Testing Room\Desktop\Joanna\morph21","no","mono","no","18","no","white","no","yes","1080","legacy","20","20","C:/Users/ERP Testing Room/Desktop/Joanna/morph21/subject-134.csv","xpyriment","Jazzy James","3.1.4","0","/","NA","NA","NA","NA","space","/","720","NA","NA","NA","NA","141707","720","2","legacy","1024","2","48000","-16","AB_m21","134","even","FILL_W","BLUNT","2332","221119","218001","219610","144058","NA","NA","NA","NA","219600","218498","NA","217501","NA","217495","219600","2351","221419","NA","NA","218610","2333","2333","219001","217495","2333","218610","221419","morph21_Oliver/Morris","14","9685","21","yes","1280","4"
"200","63.6363636364","63.6363636364","455.272727273","455.272727273","black","no","xpyriment","legacy","legacy","0","208","NA","uniform","72119","1000","0.0138659715193","0","undefined","0","0","21","21","21","0","21","21","21","NA","21","21","0","21","NA","21","21","0","21","NA","21","NA","21","0","0","21","21","0","21","21","22","z","08/01/18 15:05:49","The main experiment item","yes","FIN__AB__M21__7%3A10%3A17.osexp","C:\Users\ERP Testing Room\Desktop\Joanna\morph21","no","mono","no","18","no","white","no","yes","1080","legacy","21","21","C:/Users/ERP Testing Room/Desktop/Joanna/morph21/subject-134.csv","xpyriment","Jazzy James","3.1.4","0","/","NA","NA","NA","NA","space","/","331","NA","NA","NA","NA","141707","331","2","legacy","1024","2","48000","-16","AB_m21","134","even","FILL_NW","BLAYS","2332","224336","222727","219610","144058","NA","NA","NA","NA","219600","223224","NA","222227","NA","222221","224328","2351","224536","NA","NA","223336","2333","2333","223727","222221","2333","223336","224536","morph21_Oliver/Morris","14","10016","22","yes","1280","8"
"250","65.2173913043","65.2173913043","463","463","black","no","xpyriment","legacy","legacy","0","202","NA","uniform","66570","1000","0.0150217815833","1","undefined","1","0","22","22","22","0","22","22","22","NA","22","22","0","22","NA","22","22","0","22","NA","22","NA","22","0","0","22","22","0","22","22","23","/","08/01/18 15:05:49","The main experiment item","yes","FIN__AB__M21__7%3A10%3A17.osexp","C:\Users\ERP Testing Room\Desktop\Joanna\morph21","no","mono","no","18","no","white","no","yes","1080","legacy","22","22","C:/Users/ERP Testing Room/Desktop/Joanna/morph21/subject-134.csv","xpyriment","Jazzy James","3.1.4","0","/","NA","NA","NA","NA","space","/","633","NA","NA","NA","NA","141707","633","2","legacy","1024","2","48000","-16","AB_m21","134","even","CW_L","FLEXIBLE","2332","227353","225761","219610","144058","NA","NA","NA","NA","227343","226258","NA","225261","NA","225254","227343","2351","227603","NA","NA","226353","2333","2333","226744","225254","2333","226352","227603","morph21_Oliver/Morris","15","10649","23","yes","1280","22"
"300","66.6666666667","66.6666666667","466.541666667","466.541666667","black","no","xpyriment","legacy","legacy","0","207","NA","uniform","69813","1000","0.0143239797745","1","undefined","1","0","23","23","23","0","23","23","23","NA","23","23","0","23","NA","23","23","0","23","NA","23","NA","23","0","0","23","23","0","23","23","24","/","08/01/18 15:05:49","The main experiment item","yes","FIN__AB__M21__7%3A10%3A17.osexp","C:\Users\ERP Testing Room\Desktop\Joanna\morph21","no","mono","no","18","no","white","no","yes","1080","legacy","23","23","C:/Users/ERP Testing Room/Desktop/Joanna/morph21/subject-134.csv","xpyriment","Jazzy James","3.1.4","0","/","NA","NA","NA","NA","space","/","548","NA","NA","NA","NA","141707","548","2","legacy","1024","2","48000","-16","AB_m21","134","even","FILL_W","BAKE","2332","231994","228869","230486","144058","NA","NA","NA","NA","230482","229366","NA","228369","NA","228360","230482","2351","232295","NA","NA","229486","2333","2333","229886","228360","2333","229486","232295","morph21_Oliver/Morris","16","11197","24","yes","1280","29"
"250","68","68","473.6","473.6","black","no","xpyriment","legacy","legacy","0","208","NA","uniform","58903","1000","0.0169770639866","1","undefined","1","0","24","24","24","0","24","24","24","NA","24","24","0","24","NA","24","24","0","24","NA","24","NA","24","0","0","24","24","0","24","24","25","z","08/01/18 15:05:49","The main experiment item","yes","FIN__AB__M21__7%3A10%3A17.osexp","C:\Users\ERP Testing Room\Desktop\Joanna\morph21","no","mono","no","18","no","white","no","yes","1080","legacy","24","24","C:/Users/ERP Testing Room/Desktop/Joanna/morph21/subject-134.csv","xpyriment","Jazzy James","3.1.4","0","z","NA","NA","NA","NA","space","z","643","NA","NA","NA","NA","141707","643","2","legacy","1024","2","48000","-16","AB_m21","134","even","FILL_NW","PLAODS","2332","235095","233503","230486","144058","NA","NA","NA","NA","235090","234000","NA","233003","NA","232996","235090","2351","235345","NA","NA","234095","2333","2333","234495","232996","2333","234095","235345","morph21_Oliver/Morris","17","11840","25","yes","1280","37"
"350","69.2307692308","69.2307692308","473.807692308","473.807692308","black","no","xpyriment","legacy","legacy","0","202","NA","uniform","71898","1000","0.0139085927286","1","undefined","1","0","25","25","25","0","25","25","25","NA","25","25","0","25","NA","25","25","0","25","NA","25","NA","25","0","0","25","25","0","25","25","26","/","08/01/18 15:05:49","The main experiment item","yes","FIN__AB__M21__7%3A10%3A17.osexp","C:\Users\ERP Testing Room\Desktop\Joanna\morph21","no","mono","no","18","no","white","no","yes","1080","legacy","25","25","C:/Users/ERP Testing Room/Desktop/Joanna/morph21/subject-134.csv","xpyriment","Jazzy James","3.1.4","0","/","NA","NA","NA","NA","space","/","479","NA","NA","NA","NA","141707","479","2","legacy","1024","2","48000","-16","AB_m21","134","even","CW_L","RENTER","2332","238204","236603","230486","144058","NA","NA","NA","NA","238195","237100","NA","236103","NA","236099","238195","2351","238554","NA","NA","237203","2333","2333","237595","236099","2333","237203","238554","morph21_Oliver/Morris","18","12319","26","yes","1280","9"
"400","70.3703703704","70.3703703704","470.222222222","470.222222222","black","no","xpyriment","legacy","legacy","0","202","NA","uniform","71768","1000","0.0139337866459","1","undefined","1","0","26","26","26","0","26","26","26","NA","26","26","0","26","NA","26","26","0","26","NA","26","NA","26","0","0","26","26","0","26","26","27","/","08/01/18 15:05:49","The main experiment item","yes","FIN__AB__M21__7%3A10%3A17.osexp","C:\Users\ERP Testing Room\Desktop\Joanna\morph21","no","mono","no","18","no","white","no","yes","1080","legacy","26","26","C:/Users/ERP Testing Room/Desktop/Joanna/morph21/subject-134.csv","xpyriment","Jazzy James","3.1.4","0","/","NA","NA","NA","NA","space","/","377","NA","NA","NA","NA","141707","377","2","legacy","1024","2","48000","-16","AB_m21","134","even","CW_L","SHAPELY","2332","242854","239762","241346","144058","NA","NA","NA","NA","241336","240260","NA","239262","NA","239251","241336","2351","243254","NA","NA","240346","2333","2333","240737","239251","2333","240346","243254","morph21_Oliver/Morris","19","12696","27","yes","1280","35"
"250","67.8571428571","67.8571428571","465.357142857","465.357142857","black","no","xpyriment","legacy","legacy","0","204","NA","uniform","72342","1000","0.0138232285533","0","undefined","0","0","27","27","27","0","27","27","27","NA","27","27","0","27","NA","27","27","0","27","NA","27","NA","27","0","0","27","27","0","27","27","28","z","08/01/18 15:05:49","The main experiment item","yes","FIN__AB__M21__7%3A10%3A17.osexp","C:\Users\ERP Testing Room\Desktop\Joanna\morph21","no","mono","no","18","no","white","no","yes","1080","legacy","27","27","C:/Users/ERP Testing Room/Desktop/Joanna/morph21/subject-134.csv","xpyriment","Jazzy James","3.1.4","0","/","NA","NA","NA","NA","space","/","334","NA","NA","NA","NA","141707","334","2","legacy","1024","2","48000","-16","AB_m21","134","even","NW_L_COMP","STIRANCE","2332","246196","244571","241346","144058","NA","NA","NA","NA","241336","245068","NA","244071","NA","244064","246186","2351","246446","NA","NA","245196","2333","2333","245588","244064","2333","245196","246446","morph21_Oliver/Morris","19","13030","28","yes","1280","1"
"350","65.5172413793","65.5172413793","469.137931034","469.137931034","black","no","xpyriment","legacy","legacy","0","206","NA","uniform","69911","1000","0.0143039006737","0","undefined","0","0","28","28","28","0","28","28","28","NA","28","28","0","28","NA","28","28","0","28","NA","28","NA","28","0","0","28","28","0","28","28","29","z","08/01/18 15:05:49","The main experiment item","yes","FIN__AB__M21__7%3A10%3A17.osexp","C:\Users\ERP Testing Room\Desktop\Joanna\morph21","no","mono","no","18","no","white","no","yes","1080","legacy","28","28","C:/Users/ERP Testing Room/Desktop/Joanna/morph21/subject-134.csv","xpyriment","Jazzy James","3.1.4","0","/","NA","NA","NA","NA","space","/","575","NA","NA","NA","NA","141707","575","2","legacy","1024","2","48000","-16","AB_m21","134","even","NW_L_SIMP","PICKENGE","2332","249355","247746","241346","144058","NA","NA","NA","NA","241336","248243","NA","247246","NA","247241","249345","2351","249705","NA","NA","248355","2333","2333","248746","247241","2333","248355","249705","morph21_Oliver/Morris","19","13605","29","yes","1280","5"
"350","66.6666666667","66.6666666667","469.133333333","469.133333333","black","no","xpyriment","legacy","legacy","0","202","NA","uniform","75791","1000","0.0131941787283","1","undefined","1","0","29","29","29","0","29","29","29","NA","29","29","0","29","NA","29","29","0","29","NA","29","NA","29","0","0","29","29","0","29","29","30","/","08/01/18 15:05:49","The main experiment item","yes","FIN__AB__M21__7%3A10%3A17.osexp","C:\Users\ERP Testing Room\Desktop\Joanna\morph21","no","mono","no","18","no","white","no","yes","1080","legacy","29","29","C:/Users/ERP Testing Room/Desktop/Joanna/morph21/subject-134.csv","xpyriment","Jazzy James","3.1.4","0","/","NA","NA","NA","NA","space","/","469","NA","NA","NA","NA","141707","469","2","legacy","1024","2","48000","-16","AB_m21","134","even","CW_L","JUMPING","2332","254113","251005","252605","144058","NA","NA","NA","NA","252598","251502","NA","250505","NA","250496","252598","2351","254463","NA","NA","251605","2333","2333","251996","250495","2333","251605","254463","morph21_Oliver/Morris","20","14074","30","yes","1280","30"
"350","67.7419354839","67.7419354839","475.709677419","475.709677419","black","no","xpyriment","legacy","legacy","0","204","NA","uniform","66833","1000","0.014962668143","1","undefined","1","0","30","30","30","0","30","30","30","NA","30","30","0","30","NA","30","30","0","30","NA","30","NA","30","0","0","30","30","0","30","30","31","z","08/01/18 15:05:49","The main experiment item","yes","FIN__AB__M21__7%3A10%3A17.osexp","C:\Users\ERP Testing Room\Desktop\Joanna\morph21","no","mono","no","18","no","white","no","yes","1080","legacy","30","30","C:/Users/ERP Testing Room/Desktop/Joanna/morph21/subject-134.csv","xpyriment","Jazzy James","3.1.4","0","z","NA","NA","NA","NA","space","z","673","NA","NA","NA","NA","141707","673","2","legacy","1024","2","48000","-16","AB_m21","134","even","NW_L_COMP","MOUTHIZE","2332","257306","255706","252605","144058","NA","NA","NA","NA","257298","256203","NA","255205","NA","255199","257298","2351","257656","NA","NA","256306","2333","2333","256698","255199","2333","256306","257656","morph21_Oliver/Morris","21","14747","31","yes","1280","11"
"350","68.75","68.75","478.125","478.125","black","no","xpyriment","legacy","legacy","0","206","NA","uniform","72471","1000","0.0137986228974","1","undefined","1","0","31","31","31","0","31","31","31","NA","31","31","0","31","NA","31","31","0","31","NA","31","NA","31","0","0","31","31","0","31","31","32","z","08/01/18 15:05:49","The main experiment item","yes","FIN__AB__M21__7%3A10%3A17.osexp","C:\Users\ERP Testing Room\Desktop\Joanna\morph21","no","mono","no","18","no","white","no","yes","1080","legacy","31","31","C:/Users/ERP Testing Room/Desktop/Joanna/morph21/subject-134.csv","xpyriment","Jazzy James","3.1.4","0","z","NA","NA","NA","NA","space","z","553","NA","NA","NA","NA","141707","553","2","legacy","1024","2","48000","-16","AB_m21","134","even","NW_L_SIMP","HABITIG","2332","260489","258889","252605","144058","NA","NA","NA","NA","260479","259386","NA","258389","NA","258380","260479","2351","260839","NA","NA","259489","2333","2333","259881","258380","2333","259489","260839","morph21_Oliver/Morris","22","15300","32","yes","1280","7"
"200","69.696969697","69.696969697","478.96969697","478.96969697","black","no","xpyriment","legacy","legacy","0","203","NA","uniform","72346","1000","0.0138224642689","1","undefined","1","0","32","32","32","0","32","32","32","NA","32","32","0","32","NA","32","32","0","32","NA","32","NA","32","0","0","32","32","0","32","32","33","z","08/01/18 15:05:49","The main experiment item","yes","FIN__AB__M21__7%3A10%3A17.osexp","C:\Users\ERP Testing Room\Desktop\Joanna\morph21","no","mono","no","18","no","white","no","yes","1080","legacy","32","32","C:/Users/ERP Testing Room/Desktop/Joanna/morph21/subject-134.csv","xpyriment","Jazzy James","3.1.4","0","z","NA","NA","NA","NA","space","z","506","NA","NA","NA","NA","141707","506","2","legacy","1024","2","48000","-16","AB_m21","134","even","NW_S_COMP","ELMIST","2332","265173","262081","263665","144058","NA","NA","NA","NA","263658","262578","NA","261581","NA","261573","263658","2351","265373","NA","NA","262664","2333","2333","263056","261573","2333","262664","265373","morph21_Oliver/Morris","23","15806","33","yes","1280","10"
"250","70.5882352941","70.5882352941","478.323529412","478.323529412","black","no","xpyriment","legacy","legacy","0","201","NA","uniform","74668","1000","0.013392617989","1","undefined","1","0","33","33","33","0","33","33","33","NA","33","33","0","33","NA","33","33","0","33","NA","33","NA","33","0","0","33","33","0","33","33","34","/","08/01/18 15:05:49","The main experiment item","yes","FIN__AB__M21__7%3A10%3A17.osexp","C:\Users\ERP Testing Room\Desktop\Joanna\morph21","no","mono","no","18","no","white","no","yes","1080","legacy","33","33","C:/Users/ERP Testing Room/Desktop/Joanna/morph21/subject-134.csv","xpyriment","Jazzy James","3.1.4","0","/","NA","NA","NA","NA","space","/","457","NA","NA","NA","NA","141707","457","2","legacy","1024","2","48000","-16","AB_m21","134","even","CW_S","HUGELY","2332","268265","266648","263665","144058","NA","NA","NA","NA","268262","267145","NA","266148","NA","266140","268262","2351","268515","NA","NA","267273","2333","2333","267665","266140","2333","267273","268515","morph21_Oliver/Morris","24","16263","34","yes","1280","35"
"200","71.4285714286","71.4285714286","481.971428571","481.971428571","black","no","xpyriment","legacy","legacy","0","201","NA","uniform","71190","1000","0.0140469167018","1","undefined","1","0","34","34","34","0","34","34","34","NA","34","34","0","34","NA","34","34","0","34","NA","34","NA","34","0","0","34","34","0","34","34","35","/","08/01/18 15:05:49","The main experiment item","yes","FIN__AB__M21__7%3A10%3A17.osexp","C:\Users\ERP Testing Room\Desktop\Joanna\morph21","no","mono","no","18","no","white","no","yes","1080","legacy","34","34","C:/Users/ERP Testing Room/Desktop/Joanna/morph21/subject-134.csv","xpyriment","Jazzy James","3.1.4","0","/","NA","NA","NA","NA","space","/","606","NA","NA","NA","NA","141707","606","2","legacy","1024","2","48000","-16","AB_m21","134","even","CW_S","ANGELIC","2332","271348","269740","263665","144058","NA","NA","NA","NA","271342","270237","NA","269240","NA","269234","271342","2351","271548","NA","NA","270348","2333","2333","270740","269234","2333","270348","271548","morph21_Oliver/Morris","25","16869","35","yes","1280","25"
"200","69.4444444444","69.4444444444","482.5","482.5","black","no","xpyriment","legacy","legacy","0","207","NA","uniform","74719","1000","0.0133834767596","0","undefined","0","0","35","35","35","0","35","35","35","NA","35","35","0","35","NA","35","35","0","35","NA","35","NA","35","0","0","35","35","0","35","35","36","/","08/01/18 15:05:49","The main experiment item","yes","FIN__AB__M21__7%3A10%3A17.osexp","C:\Users\ERP Testing Room\Desktop\Joanna\morph21","no","mono","no","18","no","white","no","yes","1080","legacy","35","35","C:/Users/ERP Testing Room/Desktop/Joanna/morph21/subject-134.csv","xpyriment","Jazzy James","3.1.4","0","z","NA","NA","NA","NA","space","z","501","NA","NA","NA","NA","141707","501","2","legacy","1024","2","48000","-16","AB_m21","134","even","FILL_W","STALK","2332","276074","272958","274566","144058","NA","NA","NA","NA","271342","273455","NA","272457","NA","272445","274562","2351","276275","NA","NA","273574","2333","2333","273966","272445","2333","273574","276275","morph21_Oliver/Morris","25","17370","36","yes","1280","27"
"350","70.2702702703","70.2702702703","480.621621622","480.621621622","black","no","xpyriment","legacy","legacy","0","202","NA","uniform","69007","1000","0.014491283493","1","undefined","1","0","36","36","36","0","36","36","36","NA","36","36","0","36","NA","36","36","0","36","NA","36","NA","36","0","0","36","36","0","36","36","37","/","08/01/18 15:05:49","The main experiment item","yes","FIN__AB__M21__7%3A10%3A17.osexp","C:\Users\ERP Testing Room\Desktop\Joanna\morph21","no","mono","no","18","no","white","no","yes","1080","legacy","36","36","C:/Users/ERP Testing Room/Desktop/Joanna/morph21/subject-134.csv","xpyriment","Jazzy James","3.1.4","0","/","NA","NA","NA","NA","space","/","413","NA","NA","NA","NA","141707","413","2","legacy","1024","2","48000","-16","AB_m21","134","even","CW_L","BARKER","2332","279133","277508","274566","144058","NA","NA","NA","NA","279130","278005","NA","277008","NA","276998","279130","2351","279483","NA","NA","278141","2333","2333","278533","276998","2333","278141","279483","morph21_Oliver/Morris","26","17783","37","yes","1280","2"
"400","71.0526315789","71.0526315789","480.289473684","480.289473684","black","no","xpyriment","legacy","legacy","0","206","NA","uniform","77298","1000","0.0129369453285","1","undefined","1","0","37","37","37","0","37","37","37","NA","37","37","0","37","NA","37","37","0","37","NA","37","NA","37","0","0","37","37","0","37","37","38","z","08/01/18 15:05:49","The main experiment item","yes","FIN__AB__M21__7%3A10%3A17.osexp","C:\Users\ERP Testing Room\Desktop\Joanna\morph21","no","mono","no","18","no","white","no","yes","1080","legacy","37","37","C:/Users/ERP Testing Room/Desktop/Joanna/morph21/subject-134.csv","xpyriment","Jazzy James","3.1.4","0","z","NA","NA","NA","NA","space","z","468","NA","NA","NA","NA","141707","468","2","legacy","1024","2","48000","-16","AB_m21","134","even","NW_L_SIMP","BOGADY","2332","282358","280725","274566","144058","NA","NA","NA","NA","282354","281222","NA","280225","NA","280219","282354","2351","282758","NA","NA","281358","2333","2333","281758","280219","2333","281358","282758","morph21_Oliver/Morris","27","18251","38","yes","1280","2"
"300","71.7948717949","71.7948717949","485.564102564","485.564102564","black","no","xpyriment","legacy","legacy","0","208","NA","uniform","60769","1000","0.0164557586928","1","undefined","1","0","38","38","38","0","38","38","38","NA","38","38","0","38","NA","38","38","0","38","NA","38","NA","38","0","0","38","38","0","38","38","39","z","08/01/18 15:05:49","The main experiment item","yes","FIN__AB__M21__7%3A10%3A17.osexp","C:\Users\ERP Testing Room\Desktop\Joanna\morph21","no","mono","no","18","no","white","no","yes","1080","legacy","38","38","C:/Users/ERP Testing Room/Desktop/Joanna/morph21/subject-134.csv","xpyriment","Jazzy James","3.1.4","0","z","NA","NA","NA","NA","space","z","686","NA","NA","NA","NA","141707","686","2","legacy","1024","2","48000","-16","AB_m21","134","even","FILL_NW","DASK","2332","287225","284108","285716","144058","NA","NA","NA","NA","285711","284605","NA","283608","NA","283600","285711","2351","287525","NA","NA","284716","2333","2333","285116","283600","2333","284716","287525","morph21_Oliver/Morris","28","18937","39","yes","1280","12"
"300","72.5","72.5","487.75","487.75","black","no","xpyriment","legacy","legacy","0","205","NA","uniform","68419","1000","0.0146158230901","1","undefined","1","0","39","39","39","0","39","39","39","NA","39","39","0","39","NA","39","39","0","39","NA","39","NA","39","0","0","39","39","0","39","39","40","z","08/01/18 15:05:49","The main experiment item","yes","FIN__AB__M21__7%3A10%3A17.osexp","C:\Users\ERP Testing Room\Desktop\Joanna\morph21","no","mono","no","18","no","white","no","yes","1080","legacy","39","39","C:/Users/ERP Testing Room/Desktop/Joanna/morph21/subject-134.csv","xpyriment","Jazzy James","3.1.4","0","z","NA","NA","NA","NA","space","z","573","NA","NA","NA","NA","141707","573","2","legacy","1024","2","48000","-16","AB_m21","134","even","NW_S_SIMP","BOLTOES","2332","290326","288742","285716","144058","NA","NA","NA","NA","290320","289239","NA","288242","NA","288232","290320","2351","290626","NA","NA","289325","2333","2333","289725","288232","2333","289325","290626","morph21_Oliver/Morris","29","19510","40","yes","1280","13"
"250","70.7317073171","70.7317073171","491.658536585","491.658536585","black","no","xpyriment","legacy","legacy","0","203","NA","uniform","66903","1000","0.0149470128395","0","undefined","0","0","40","40","40","0","40","40","40","NA","40","40","0","40","NA","40","40","0","40","NA","40","NA","40","0","0","40","40","0","40","40","41","z","08/01/18 15:05:49","The main experiment item","yes","FIN__AB__M21__7%3A10%3A17.osexp","C:\Users\ERP Testing Room\Desktop\Joanna\morph21","no","mono","no","18","no","white","no","yes","1080","legacy","40","40","C:/Users/ERP Testing Room/Desktop/Joanna/morph21/subject-134.csv","xpyriment","Jazzy James","3.1.4","0","/","NA","NA","NA","NA","space","/","648","NA","NA","NA","NA","141707","648","2","legacy","1024","2","48000","-16","AB_m21","134","even","NW_S_COMP","TREASONIZE","2332","293443","291859","285716","144058","NA","NA","NA","NA","290320","292357","NA","291359","NA","291355","293438","2351","293693","NA","NA","292443","2333","2333","292843","291355","2333","292443","293693","morph21_Oliver/Morris","29","20158","41","yes","1280","14"
"200","71.4285714286","71.4285714286","494.69047619","494.69047619","black","no","xpyriment","legacy","legacy","0","205","NA","uniform","65683","1000","0.0152246395567","1","undefined","1","0","41","41","41","0","41","41","41","NA","41","41","0","41","NA","41","41","0","41","NA","41","NA","41","0","0","41","41","0","41","41","42","z","08/01/18 15:05:49","The main experiment item","yes","FIN__AB__M21__7%3A10%3A17.osexp","C:\Users\ERP Testing Room\Desktop\Joanna\morph21","no","mono","no","18","no","white","no","yes","1080","legacy","41","41","C:/Users/ERP Testing Room/Desktop/Joanna/morph21/subject-134.csv","xpyriment","Jazzy James","3.1.4","0","z","NA","NA","NA","NA","space","z","619","NA","NA","NA","NA","141707","619","2","legacy","1024","2","48000","-16","AB_m21","134","even","NW_S_SIMP","NULLITH","2332","298085","294951","296576","144058","NA","NA","NA","NA","296568","295448","NA","294451","NA","294442","296568","2351","298285","NA","NA","295576","2333","2333","295968","294442","2333","295576","298285","morph21_Oliver/Morris","30","20777","42","yes","1280","23"
"200","72.0930232558","72.0930232558","496.674418605","496.674418605","black","no","xpyriment","legacy","legacy","0","208","NA","uniform","66413","1000","0.0150572929999","1","undefined","1","0","42","42","42","0","42","42","42","NA","42","42","0","42","NA","42","42","0","42","NA","42","NA","42","0","0","42","42","0","42","42","43","z","08/01/18 15:05:49","The main experiment item","yes","FIN__AB__M21__7%3A10%3A17.osexp","C:\Users\ERP Testing Room\Desktop\Joanna\morph21","no","mono","no","18","no","white","no","yes","1080","legacy","42","42","C:/Users/ERP Testing Room/Desktop/Joanna/morph21/subject-134.csv","xpyriment","Jazzy James","3.1.4","0","z","NA","NA","NA","NA","space","z","580","NA","NA","NA","NA","141707","580","2","legacy","1024","2","48000","-16","AB_m21","134","even","FILL_NW","VUNKS","2332","301110","299501","296576","144058","NA","NA","NA","NA","301107","299999","NA","299001","NA","298991","301107","2351","301310","NA","NA","300118","2333","2333","300510","298991","2333","300118","301310","morph21_Oliver/Morris","31","21357","43","yes","1280","49"
"250","70.4545454545","70.4545454545","507.886363636","507.886363636","black","no","xpyriment","legacy","legacy","0","207","NA","uniform","54228","1000","0.0184406579627","0","undefined","0","0","43","43","43","0","43","43","43","NA","43","43","0","43","NA","43","43","0","43","NA","43","NA","43","0","0","43","43","0","43","43","44","/","08/01/18 15:05:49","The main experiment item","yes","FIN__AB__M21__7%3A10%3A17.osexp","C:\Users\ERP Testing Room\Desktop\Joanna\morph21","no","mono","no","18","no","white","no","yes","1080","legacy","43","43","C:/Users/ERP Testing Room/Desktop/Joanna/morph21/subject-134.csv","xpyriment","Jazzy James","3.1.4","0","None","NA","NA","NA","NA","space","None","990","NA","NA","NA","NA","141707","990","2","legacy","1024","2","48000","-16","AB_m21","134","even","FILL_W","WEAVE","2332","304218","302610","296576","144058","NA","NA","NA","NA","301107","303107","NA","302110","NA","302100","304209","2351","304468","NA","NA","303218","2333","2333","303610","302100","2333","303218","304468","morph21_Oliver/Morris","31","22347","44","yes","1280","12"
"250","68.8888888889","68.8888888889","515.288888889","515.288888889","black","no","xpyriment","legacy","legacy","0","207","NA","uniform","60123","1000","0.0166325698984","0","undefined","0","0","44","44","44","0","44","44","44","NA","44","44","0","44","NA","44","44","0","44","NA","44","NA","44","0","0","44","44","0","44","44","45","/","08/01/18 15:05:49","The main experiment item","yes","FIN__AB__M21__7%3A10%3A17.osexp","C:\Users\ERP Testing Room\Desktop\Joanna\morph21","no","mono","no","18","no","white","no","yes","1080","legacy","44","44","C:/Users/ERP Testing Room/Desktop/Joanna/morph21/subject-134.csv","xpyriment","Jazzy James","3.1.4","0","z","NA","NA","NA","NA","space","z","841","NA","NA","NA","NA","141707","841","2","legacy","1024","2","48000","-16","AB_m21","134","even","FILL_W","COOK","2332","308903","305810","307394","144058","NA","NA","NA","NA","301107","306307","NA","305310","NA","305303","307387","2351","309153","NA","NA","306393","2333","2333","306785","305303","2333","306393","309153","morph21_Oliver/Morris","31","23188","45","yes","1280","38"
"200","69.5652173913","69.5652173913","520.434782609","520.434782609","black","no","xpyriment","legacy","legacy","0","203","NA","uniform","59502","1000","0.0168061577762","1","undefined","1","0","45","45","45","0","45","45","45","NA","45","45","0","45","NA","45","45","0","45","NA","45","NA","45","0","0","45","45","0","45","45","46","z","08/01/18 15:05:49","The main experiment item","yes","FIN__AB__M21__7%3A10%3A17.osexp","C:\Users\ERP Testing Room\Desktop\Joanna\morph21","no","mono","no","18","no","white","no","yes","1080","legacy","45","45","C:/Users/ERP Testing Room/Desktop/Joanna/morph21/subject-134.csv","xpyriment","Jazzy James","3.1.4","0","z","NA","NA","NA","NA","space","z","752","NA","NA","NA","NA","141707","752","2","legacy","1024","2","48000","-16","AB_m21","134","even","NW_S_COMP","ANTISM","2332","311986","310386","307394","144058","NA","NA","NA","NA","311980","310883","NA","309886","NA","309880","311980","2351","312186","NA","NA","310986","2333","2333","311378","309880","2333","310986","312186","morph21_Oliver/Morris","32","23940","46","yes","1280","8"
"250","70.2127659574","70.2127659574","518.914893617","518.914893617","black","no","xpyriment","legacy","legacy","0","207","NA","uniform","67622","1000","0.0147880867173","1","undefined","1","0","46","46","46","0","46","46","46","NA","46","46","0","46","NA","46","46","0","46","NA","46","NA","46","0","0","46","46","0","46","46","47","/","08/01/18 15:05:49","The main experiment item","yes","FIN__AB__M21__7%3A10%3A17.osexp","C:\Users\ERP Testing Room\Desktop\Joanna\morph21","no","mono","no","18","no","white","no","yes","1080","legacy","46","46","C:/Users/ERP Testing Room/Desktop/Joanna/morph21/subject-134.csv","xpyriment","Jazzy James","3.1.4","0","/","NA","NA","NA","NA","space","/","449","NA","NA","NA","NA","141707","449","2","legacy","1024","2","48000","-16","AB_m21","134","even","FILL_W","SLIM","2332","315145","313536","307394","144058","NA","NA","NA","NA","315140","314034","NA","313036","NA","313031","315140","2351","315395","NA","NA","314145","2333","2333","314545","313031","2333","314145","315395","morph21_Oliver/Morris","33","24389","47","yes","1280","6"
"200","68.75","68.75","520.833333333","520.833333333","black","no","xpyriment","legacy","legacy","0","204","NA","uniform","61009","1000","0.0163910242751","0","undefined","0","0","47","47","47","0","47","47","47","NA","47","47","0","47","NA","47","47","0","47","NA","47","NA","47","0","0","47","47","0","47","47","48","z","08/01/18 15:05:49","The main experiment item","yes","FIN__AB__M21__7%3A10%3A17.osexp","C:\Users\ERP Testing Room\Desktop\Joanna\morph21","no","mono","no","18","no","white","no","yes","1080","legacy","47","47","C:/Users/ERP Testing Room/Desktop/Joanna/morph21/subject-134.csv","xpyriment","Jazzy James","3.1.4","0","/","NA","NA","NA","NA","space","/","611","NA","NA","NA","NA","141707","611","2","legacy","1024","2","48000","-16","AB_m21","134","even","NW_L_COMP","GASFUL","2332","319803","316695","318295","144058","NA","NA","NA","NA","315140","317192","NA","316195","NA","316192","318290","2351","320004","NA","NA","317295","2333","2333","317695","316191","2333","317295","320004","morph21_Oliver/Morris","33","25000","48","yes","1280","6"
"200","69.387755102","69.387755102","524.224489796","524.224489796","black","no","xpyriment","legacy","legacy","0","208","NA","uniform","65220","1000","0.0153327200245","1","undefined","1","0","48","48","48","0","48","48","48","NA","48","48","0","48","NA","48","48","0","48","NA","48","NA","48","0","0","48","48","0","48","48","49","z","08/01/18 15:05:49","The main experiment item","yes","FIN__AB__M21__7%3A10%3A17.osexp","C:\Users\ERP Testing Room\Desktop\Joanna\morph21","no","mono","no","18","no","white","no","yes","1080","legacy","48","48","C:/Users/ERP Testing Room/Desktop/Joanna/morph21/subject-134.csv","xpyriment","Jazzy James","3.1.4","0","z","NA","NA","NA","NA","space","z","687","NA","NA","NA","NA","141707","687","2","legacy","1024","2","48000","-16","AB_m21","134","even","FILL_NW","PORDS","2332","322795","321212","318295","144058","NA","NA","NA","NA","322789","321709","NA","320712","NA","320704","322789","2351","322995","NA","NA","321795","2333","2333","322187","320704","2333","321795","322995","morph21_Oliver/Morris","34","25687","49","yes","1280","39"
"250","70","70","525.38","525.38","black","no","xpyriment","legacy","legacy","0","208","NA","uniform","57269","1000","0.0174614538406","1","undefined","1","0","49","49","49","0","49","49","49","NA","49","49","0","49","NA","49","49","0","49","NA","49","NA","49","0","0","49","49","0","49","49","50","z","08/01/18 15:05:49","The main experiment item","yes","FIN__AB__M21__7%3A10%3A17.osexp","C:\Users\ERP Testing Room\Desktop\Joanna\morph21","no","mono","no","18","no","white","no","yes","1080","legacy","49","49","C:/Users/ERP Testing Room/Desktop/Joanna/morph21/subject-134.csv","xpyriment","Jazzy James","3.1.4","0","z","NA","NA","NA","NA","space","z","582","NA","NA","NA","NA","141707","582","2","legacy","1024","2","48000","-16","AB_m21","134","even","FILL_NW","PIFTH","2332","325830","324237","318295","144058","NA","NA","NA","NA","325822","324734","NA","323737","NA","323728","325822","2351","326080","NA","NA","324829","2333","2333","325221","323728","2333","324829","326080","morph21_Oliver/Morris","35","26269","50","yes","1280","36"
"300","70.5882352941","70.5882352941","526.823529412","526.823529412","black","no","xpyriment","legacy","legacy","0","206","NA","uniform","61547","1000","0.0162477456253","1","undefined","1","0","50","50","50","0","50","50","50","NA","50","50","0","50","NA","50","50","0","50","NA","50","NA","50","0","0","50","50","0","50","50","51","z","08/01/18 15:05:49","The main experiment item","yes","FIN__AB__M21__7%3A10%3A17.osexp","C:\Users\ERP Testing Room\Desktop\Joanna\morph21","no","mono","no","18","no","white","no","yes","1080","legacy","50","50","C:/Users/ERP Testing Room/Desktop/Joanna/morph21/subject-134.csv","xpyriment","Jazzy James","3.1.4","0","z","NA","NA","NA","NA","space","z","599","NA","NA","NA","NA","141707","599","2","legacy","1024","2","48000","-16","AB_m21","134","even","NW_L_SIMP","ELBOWILM","2332","330488","327363","328980","144058","NA","NA","NA","NA","328970","327860","NA","326863","NA","326852","328970","2351","330788","NA","NA","327980","2333","2333","328371","326852","2333","327980","330788","morph21_Oliver/Morris","36","26868","51","yes","1280","10"
"300","71.1538461538","71.1538461538","528.961538462","528.961538462","black","no","xpyriment","legacy","legacy","0","205","NA","uniform","70151","1000","0.0142549642913","1","undefined","1","0","51","51","51","0","51","51","51","NA","51","51","0","51","NA","51","51","0","51","NA","51","NA","51","0","0","51","51","0","51","51","52","z","08/01/18 15:05:49","The main experiment item","yes","FIN__AB__M21__7%3A10%3A17.osexp","C:\Users\ERP Testing Room\Desktop\Joanna\morph21","no","mono","no","18","no","white","no","yes","1080","legacy","51","51","C:/Users/ERP Testing Room/Desktop/Joanna/morph21/subject-134.csv","xpyriment","Jazzy James","3.1.4","0","z","NA","NA","NA","NA","space","z","638","NA","NA","NA","NA","141707","638","2","legacy","1024","2","48000","-16","AB_m21","134","even","NW_S_SIMP","WINKIDY","2332","333588","331988","328980","144058","NA","NA","NA","NA","333579","332485","NA","331488","NA","331481","333579","2351","333888","NA","NA","332588","2333","2333","332980","331481","2333","332588","333888","morph21_Oliver/Morris","37","27506","52","yes","1280","21"
"250","71.6981132075","71.6981132075","529.377358491","529.377358491","black","no","xpyriment","legacy","legacy","0","201","NA","uniform","73372","1000","0.0136291773429","1","undefined","1","0","52","52","52","0","52","52","52","NA","52","52","0","52","NA","52","52","0","52","NA","52","NA","52","0","0","52","52","0","52","52","53","/","08/01/18 15:05:49","The main experiment item","yes","FIN__AB__M21__7%3A10%3A17.osexp","C:\Users\ERP Testing Room\Desktop\Joanna\morph21","no","mono","no","18","no","white","no","yes","1080","legacy","52","52","C:/Users/ERP Testing Room/Desktop/Joanna/morph21/subject-134.csv","xpyriment","Jazzy James","3.1.4","0","/","NA","NA","NA","NA","space","/","551","NA","NA","NA","NA","141707","551","2","legacy","1024","2","48000","-16","AB_m21","134","even","CW_S","GRIMLY","2332","336763","335155","328980","144058","NA","NA","NA","NA","336757","335652","NA","334655","NA","334645","336757","2351","337013","NA","NA","335763","2333","2333","336155","334645","2333","335763","337013","morph21_Oliver/Morris","38","28057","53","yes","1280","31"
"250","72.2222222222","72.2222222222","534.833333333","534.833333333","black","no","xpyriment","legacy","legacy","0","201","NA","uniform","62197","1000","0.0160779458816","1","undefined","1","0","53","53","53","0","53","53","53","NA","53","53","0","53","NA","53","53","0","53","NA","53","NA","53","0","0","53","53","0","53","53","54","/","08/01/18 15:05:49","The main experiment item","yes","FIN__AB__M21__7%3A10%3A17.osexp","C:\Users\ERP Testing Room\Desktop\Joanna\morph21","no","mono","no","18","no","white","no","yes","1080","legacy","53","53","C:/Users/ERP Testing Room/Desktop/Joanna/morph21/subject-134.csv","xpyriment","Jazzy James","3.1.4","0","/","NA","NA","NA","NA","space","/","824","NA","NA","NA","NA","141707","824","2","legacy","1024","2","48000","-16","AB_m21","134","even","CW_S","NOTICEABLE","2332","341430","338314","339922","144058","NA","NA","NA","NA","339919","338811","NA","337814","NA","337807","339919","2351","341681","NA","NA","338930","2333","2333","339322","337807","2333","338930","341681","morph21_Oliver/Morris","39","28881","54","yes","1280","3"
"300","72.7272727273","72.7272727273","538.181818182","538.181818182","black","no","xpyriment","legacy","legacy","0","204","NA","uniform","65801","1000","0.0151973374265","1","undefined","1","0","54","54","54","0","54","54","54","NA","54","54","0","54","NA","54","54","0","54","NA","54","NA","54","0","0","54","54","0","54","54","55","z","08/01/18 15:05:49","The main experiment item","yes","FIN__AB__M21__7%3A10%3A17.osexp","C:\Users\ERP Testing Room\Desktop\Joanna\morph21","no","mono","no","18","no","white","no","yes","1080","legacy","54","54","C:/Users/ERP Testing Room/Desktop/Joanna/morph21/subject-134.csv","xpyriment","Jazzy James","3.1.4","0","z","NA","NA","NA","NA","space","z","719","NA","NA","NA","NA","141707","719","2","legacy","1024","2","48000","-16","AB_m21","134","even","NW_L_COMP","ADDMENT","2332","344540","342940","339922","144058","NA","NA","NA","NA","344530","343437","NA","342439","NA","342427","344530","2351","344840","NA","NA","343540","2333","2333","343931","342427","2333","343540","344840","morph21_Oliver/Morris","40","29600","55","yes","1280","13"
"300","73.2142857143","73.2142857143","536.482142857","536.482142857","black","no","xpyriment","legacy","legacy","0","201","NA","uniform","68510","1000","0.0145964092833","1","undefined","1","0","55","55","55","0","55","55","55","NA","55","55","0","55","NA","55","55","0","55","NA","55","NA","55","0","0","55","55","0","55","55","56","/","08/01/18 15:05:49","The main experiment item","yes","FIN__AB__M21__7%3A10%3A17.osexp","C:\Users\ERP Testing Room\Desktop\Joanna\morph21","no","mono","no","18","no","white","no","yes","1080","legacy","55","55","C:/Users/ERP Testing Room/Desktop/Joanna/morph21/subject-134.csv","xpyriment","Jazzy James","3.1.4","0","/","NA","NA","NA","NA","space","/","443","NA","NA","NA","NA","141707","443","2","legacy","1024","2","48000","-16","AB_m21","134","even","CW_S","ATTACKER","2332","347632","346048","339922","144058","NA","NA","NA","NA","347622","346545","NA","345548","NA","345541","347622","2351","347932","NA","NA","346632","2333","2333","347023","345540","2333","346632","347932","morph21_Oliver/Morris","41","30043","56","yes","1280","20"
"200","73.6842105263","73.6842105263","540.140350877","540.140350877","black","no","xpyriment","legacy","legacy","0","205","NA","uniform","64044","1000","0.0156142651927","1","undefined","1","0","56","56","56","0","56","56","56","NA","56","56","0","56","NA","56","56","0","56","NA","56","NA","56","0","0","56","56","0","56","56","57","z","08/01/18 15:05:49","The main experiment item","yes","FIN__AB__M21__7%3A10%3A17.osexp","C:\Users\ERP Testing Room\Desktop\Joanna\morph21","no","mono","no","18","no","white","no","yes","1080","legacy","56","56","C:/Users/ERP Testing Room/Desktop/Joanna/morph21/subject-134.csv","xpyriment","Jazzy James","3.1.4","0","z","NA","NA","NA","NA","space","z","745","NA","NA","NA","NA","141707","745","2","legacy","1024","2","48000","-16","AB_m21","134","even","NW_S_SIMP","OPPOSEMANT","2332","352365","349265","350857","144058","NA","NA","NA","NA","350852","349762","NA","348765","NA","348753","350852","2351","352565","NA","NA","349857","2333","2333","350257","348753","2333","349857","352565","morph21_Oliver/Morris","42","30788","57","yes","1280","8"
"250","74.1379310345","74.1379310345","541.103448276","541.103448276","black","no","xpyriment","legacy","legacy","0","208","NA","uniform","76145","1000","0.0131328386631","1","undefined","1","0","57","57","57","0","57","57","57","NA","57","57","0","57","NA","57","57","0","57","NA","57","NA","57","0","0","57","57","0","57","57","58","z","08/01/18 15:05:49","The main experiment item","yes","FIN__AB__M21__7%3A10%3A17.osexp","C:\Users\ERP Testing Room\Desktop\Joanna\morph21","no","mono","no","18","no","white","no","yes","1080","legacy","57","57","C:/Users/ERP Testing Room/Desktop/Joanna/morph21/subject-134.csv","xpyriment","Jazzy James","3.1.4","0","z","NA","NA","NA","NA","space","z","596","NA","NA","NA","NA","141707","596","2","legacy","1024","2","48000","-16","AB_m21","134","even","FILL_NW","POLT","2332","355374","353782","350857","144058","NA","NA","NA","NA","355368","354279","NA","353282","NA","353279","355368","2351","355624","NA","NA","354374","2333","2333","354765","353279","2333","354374","355624","morph21_Oliver/Morris","43","31384","58","yes","1280","38"
"400","74.5762711864","74.5762711864","541.033898305","541.033898305","black","no","xpyriment","legacy","legacy","0","208","NA","uniform","75619","1000","0.0132241896878","1","undefined","1","0","58","58","58","0","58","58","58","NA","58","58","0","58","NA","58","58","0","58","NA","58","NA","58","0","0","58","58","0","58","58","59","z","08/01/18 15:05:49","The main experiment item","yes","FIN__AB__M21__7%3A10%3A17.osexp","C:\Users\ERP Testing Room\Desktop\Joanna\morph21","no","mono","no","18","no","white","no","yes","1080","legacy","58","58","C:/Users/ERP Testing Room/Desktop/Joanna/morph21/subject-134.csv","xpyriment","Jazzy James","3.1.4","0","z","NA","NA","NA","NA","space","z","537","NA","NA","NA","NA","141707","537","2","legacy","1024","2","48000","-16","AB_m21","134","even","FILL_NW","CORG","2332","358657","357040","350857","144058","NA","NA","NA","NA","358647","357537","NA","356540","NA","356529","358647","2351","359057","NA","NA","357657","2333","2333","358049","356529","2333","357657","359057","morph21_Oliver/Morris","44","31921","59","yes","1280","7"
"200","75","75","541.15","541.15","black","no","xpyriment","legacy","legacy","0","204","NA","uniform","77181","1000","0.0129565566655","1","undefined","1","0","59","59","59","0","59","59","59","NA","59","59","0","59","NA","59","59","0","59","NA","59","NA","59","0","0","59","59","0","59","59","60","z","08/01/18 15:05:49","The main experiment item","yes","FIN__AB__M21__7%3A10%3A17.osexp","C:\Users\ERP Testing Room\Desktop\Joanna\morph21","no","mono","no","18","no","white","no","yes","1080","legacy","59","59","C:/Users/ERP Testing Room/Desktop/Joanna/morph21/subject-134.csv","xpyriment","Jazzy James","3.1.4","0","z","NA","NA","NA","NA","space","z","548","NA","NA","NA","NA","141707","548","2","legacy","1024","2","48000","-16","AB_m21","134","even","NW_L_COMP","PITCHORY","2332","363475","360350","361967","144058","NA","NA","NA","NA","361963","360847","NA","359849","NA","359841","361963","2351","363675","NA","NA","360975","2333","2333","361366","359841","2333","360975","363675","morph21_Oliver/Morris","45","32469","60","yes","1280","25"
"200","75.4098360656","75.4098360656","541.557377049","541.557377049","black","no","xpyriment","legacy","legacy","0","207","NA","uniform","71325","1000","0.0140203294777","1","undefined","1","0","60","60","60","0","60","60","60","NA","60","60","0","60","NA","60","60","0","60","NA","60","NA","60","0","0","60","60","0","60","60","61","/","08/01/18 15:05:49","The main experiment item","yes","FIN__AB__M21__7%3A10%3A17.osexp","C:\Users\ERP Testing Room\Desktop\Joanna\morph21","no","mono","no","18","no","white","no","yes","1080","legacy","60","60","C:/Users/ERP Testing Room/Desktop/Joanna/morph21/subject-134.csv","xpyriment","Jazzy James","3.1.4","0","/","NA","NA","NA","NA","space","/","566","NA","NA","NA","NA","141707","566","2","legacy","1024","2","48000","-16","AB_m21","134","even","FILL_W","LEGAL","2332","366492","364867","361967","144058","NA","NA","NA","NA","366483","365364","NA","364367","NA","364359","366483","2351","366692","NA","NA","365492","2333","2333","365883","364359","2333","365492","366692","morph21_Oliver/Morris","46","33035","61","yes","1280","35"
"400","75.8064516129","75.8064516129","541.580645161","541.580645161","black","no","xpyriment","legacy","legacy","0","208","NA","uniform","65916","1000","0.0151708234723","1","undefined","1","0","61","61","61","0","61","61","61","NA","61","61","0","61","NA","61","61","0","61","NA","61","NA","61","0","0","61","61","0","61","61","62","z","08/01/18 15:05:49","The main experiment item","yes","FIN__AB__M21__7%3A10%3A17.osexp","C:\Users\ERP Testing Room\Desktop\Joanna\morph21","no","mono","no","18","no","white","no","yes","1080","legacy","61","61","C:/Users/ERP Testing Room/Desktop/Joanna/morph21/subject-134.csv","xpyriment","Jazzy James","3.1.4","0","z","NA","NA","NA","NA","space","z","543","NA","NA","NA","NA","141707","543","2","legacy","1024","2","48000","-16","AB_m21","134","even","FILL_NW","SOISE","2332","369659","368042","361967","144058","NA","NA","NA","NA","369654","368539","NA","367542","NA","367534","369654","2351","370059","NA","NA","368659","2333","2333","369059","367534","2333","368659","370059","morph21_Oliver/Morris","47","33578","62","yes","1280","43"
"200","74.6031746032","74.6031746032","540.492063492","540.492063492","black","no","xpyriment","legacy","legacy","0","208","NA","uniform","77803","1000","0.012852974821","0","undefined","0","0","62","62","62","0","62","62","62","NA","62","62","0","62","NA","62","62","0","62","NA","62","NA","62","0","0","62","62","0","62","62","63","z","08/01/18 15:05:49","The main experiment item","yes","FIN__AB__M21__7%3A10%3A17.osexp","C:\Users\ERP Testing Room\Desktop\Joanna\morph21","no","mono","no","18","no","white","no","yes","1080","legacy","62","62","C:/Users/ERP Testing Room/Desktop/Joanna/morph21/subject-134.csv","xpyriment","Jazzy James","3.1.4","0","/","NA","NA","NA","NA","space","/","473","NA","NA","NA","NA","141707","473","2","legacy","1024","2","48000","-16","AB_m21","134","even","FILL_NW","FALONS","2332","374526","371409","373017","144058","NA","NA","NA","NA","369654","371906","NA","370909","NA","370902","373010","2351","374726","NA","NA","372017","2333","2333","372409","370902","2333","372017","374726","morph21_Oliver/Morris","47","34051","63","yes","1280","19"
"400","75","75","540.765625","540.765625","black","no","xpyriment","legacy","legacy","0","207","NA","uniform","64438","1000","0.0155187932586","1","undefined","1","0","63","63","63","0","63","63","63","NA","63","63","0","63","NA","63","63","0","63","NA","63","NA","63","0","0","63","63","0","63","63","64","/","08/01/18 15:05:49","The main experiment item","yes","FIN__AB__M21__7%3A10%3A17.osexp","C:\Users\ERP Testing Room\Desktop\Joanna\morph21","no","mono","no","18","no","white","no","yes","1080","legacy","63","63","C:/Users/ERP Testing Room/Desktop/Joanna/morph21/subject-134.csv","xpyriment","Jazzy James","3.1.4","0","/","NA","NA","NA","NA","space","/","558","NA","NA","NA","NA","141707","558","2","legacy","1024","2","48000","-16","AB_m21","134","even","FILL_W","CRUNCH","2332","377677","376059","373017","144058","NA","NA","NA","NA","377670","376556","NA","375550","NA","375544","377670","2351","378077","NA","NA","376676","2333","2333","377067","375544","2333","376676","378077","morph21_Oliver/Morris","48","34609","64","yes","1280","20"
"350","73.8461538462","73.8461538462","540.476923077","540.476923077","black","no","xpyriment","legacy","legacy","0","201","NA","uniform","74871","1000","0.01335630618","0","undefined","0","0","64","64","64","0","64","64","64","NA","64","64","0","64","NA","64","64","0","64","NA","64","NA","64","0","0","64","64","0","64","64","65","/","08/01/18 15:05:49","The main experiment item","yes","FIN__AB__M21__7%3A10%3A17.osexp","C:\Users\ERP Testing Room\Desktop\Joanna\morph21","no","mono","no","18","no","white","no","yes","1080","legacy","64","64","C:/Users/ERP Testing Room/Desktop/Joanna/morph21/subject-134.csv","xpyriment","Jazzy James","3.1.4","0","z","NA","NA","NA","NA","space","z","522","NA","NA","NA","NA","141707","522","2","legacy","1024","2","48000","-16","AB_m21","134","even","CW_S","DENSELY","2332","380977","379360","373017","144058","NA","NA","NA","NA","377670","379857","NA","378860","NA","378851","380969","2351","381327","NA","NA","379977","2333","2333","380368","378851","2333","379977","381327","morph21_Oliver/Morris","48","35131","65","yes","1280","32"
"250","74.2424242424","74.2424242424","539.575757576","539.575757576","black","no","xpyriment","legacy","legacy","0","201","NA","uniform","70986","1000","0.0140872848167","1","undefined","1","0","65","65","65","0","65","65","65","NA","65","65","0","65","NA","65","65","0","65","NA","65","NA","65","0","0","65","65","0","65","65","66","/","08/01/18 15:05:49","The main experiment item","yes","FIN__AB__M21__7%3A10%3A17.osexp","C:\Users\ERP Testing Room\Desktop\Joanna\morph21","no","mono","no","18","no","white","no","yes","1080","legacy","65","65","C:/Users/ERP Testing Room/Desktop/Joanna/morph21/subject-134.csv","xpyriment","Jazzy James","3.1.4","0","/","NA","NA","NA","NA","space","/","481","NA","NA","NA","NA","141707","481","2","legacy","1024","2","48000","-16","AB_m21","134","even","CW_S","TOSSING","2332","385694","382577","384185","144058","NA","NA","NA","NA","384182","383074","NA","382068","NA","382062","384182","2351","385944","NA","NA","383194","2333","2333","383585","382062","2333","383194","385944","morph21_Oliver/Morris","49","35612","66","yes","1280","26"
"350","74.6268656716","74.6268656716","541.641791045","541.641791045","black","no","xpyriment","legacy","legacy","0","201","NA","uniform","61075","1000","0.0163733115023","1","undefined","1","0","66","66","66","0","66","66","66","NA","66","66","0","66","NA","66","66","0","66","NA","66","NA","66","0","0","66","66","0","66","66","67","/","08/01/18 15:05:49","The main experiment item","yes","FIN__AB__M21__7%3A10%3A17.osexp","C:\Users\ERP Testing Room\Desktop\Joanna\morph21","no","mono","no","18","no","white","no","yes","1080","legacy","66","66","C:/Users/ERP Testing Room/Desktop/Joanna/morph21/subject-134.csv","xpyriment","Jazzy James","3.1.4","0","/","NA","NA","NA","NA","space","/","678","NA","NA","NA","NA","141707","678","2","legacy","1024","2","48000","-16","AB_m21","134","even","CW_S","NEATLY","2332","388844","387219","384185","144058","NA","NA","NA","NA","388834","387716","NA","386719","NA","386711","388834","2351","389194","NA","NA","387844","2333","2333","388235","386711","2333","387844","389194","morph21_Oliver/Morris","50","36290","67","yes","1280","33"
"300","73.5294117647","73.5294117647","541.617647059","541.617647059","black","no","xpyriment","legacy","legacy","0","202","NA","uniform","64530","1000","0.0154966682163","0","undefined","0","0","67","67","67","0","67","67","67","NA","67","67","0","67","NA","67","67","0","67","NA","67","NA","67","0","0","67","67","0","67","67","68","/","08/01/18 15:05:49","The main experiment item","yes","FIN__AB__M21__7%3A10%3A17.osexp","C:\Users\ERP Testing Room\Desktop\Joanna\morph21","no","mono","no","18","no","white","no","yes","1080","legacy","67","67","C:/Users/ERP Testing Room/Desktop/Joanna/morph21/subject-134.csv","xpyriment","Jazzy James","3.1.4","0","z","NA","NA","NA","NA","space","z","540","NA","NA","NA","NA","141707","540","2","legacy","1024","2","48000","-16","AB_m21","134","even","CW_L","KNOCKER","2332","392102","390494","384185","144058","NA","NA","NA","NA","388834","390991","NA","389994","NA","389984","392092","2351","392402","NA","NA","391102","2333","2333","391494","389984","2333","391102","392402","morph21_Oliver/Morris","50","36830","68","yes","1280","4"
"300","72.4637681159","72.4637681159","540.956521739","540.956521739","black","no","xpyriment","legacy","legacy","0","205","NA","uniform","68489","1000","0.0146008848136","0","undefined","0","0","68","68","68","0","68","68","68","NA","68","68","0","68","NA","68","68","0","68","NA","68","NA","68","0","0","68","68","0","68","68","69","z","08/01/18 15:05:49","The main experiment item","yes","FIN__AB__M21__7%3A10%3A17.osexp","C:\Users\ERP Testing Room\Desktop\Joanna\morph21","no","mono","no","18","no","white","no","yes","1080","legacy","68","68","C:/Users/ERP Testing Room/Desktop/Joanna/morph21/subject-134.csv","xpyriment","Jazzy James","3.1.4","0","/","NA","NA","NA","NA","space","/","496","NA","NA","NA","NA","141707","496","2","legacy","1024","2","48000","-16","AB_m21","134","even","NW_S_SIMP","TILTADY","2332","396904","393777","395395","144058","NA","NA","NA","NA","388834","394274","NA","393277","NA","393271","395386","2351","397204","NA","NA","394394","2333","2333","394786","393271","2333","394394","397204","morph21_Oliver/Morris","50","37326","69","yes","1280","17"
"350","72.8571428571","72.8571428571","539.5","539.5","black","no","xpyriment","legacy","legacy","0","207","NA","uniform","80139","1000","0.0124783189209","1","undefined","1","0","69","69","69","0","69","69","69","NA","69","69","0","69","NA","69","69","0","69","NA","69","NA","69","0","0","69","69","0","69","69","70","/","08/01/18 15:05:49","The main experiment item","yes","FIN__AB__M21__7%3A10%3A17.osexp","C:\Users\ERP Testing Room\Desktop\Joanna\morph21","no","mono","no","18","no","white","no","yes","1080","legacy","69","69","C:/Users/ERP Testing Room/Desktop/Joanna/morph21/subject-134.csv","xpyriment","Jazzy James","3.1.4","0","/","NA","NA","NA","NA","space","/","439","NA","NA","NA","NA","141707","439","2","legacy","1024","2","48000","-16","AB_m21","134","even","FILL_W","LEAK","2332","400020","398420","395395","144058","NA","NA","NA","NA","400014","398917","NA","397920","NA","397910","400014","2351","400370","NA","NA","399020","2333","2333","399412","397910","2333","399020","400370","morph21_Oliver/Morris","51","37765","70","yes","1280","9"
"200","73.2394366197","73.2394366197","538.23943662","538.23943662","black","no","xpyriment","legacy","legacy","0","201","NA","uniform","76051","1000","0.0131490710181","1","undefined","1","0","70","70","70","0","70","70","70","NA","70","70","0","70","NA","70","70","0","70","NA","70","NA","70","0","0","70","70","0","70","70","71","/","08/01/18 15:05:49","The main experiment item","yes","FIN__AB__M21__7%3A10%3A17.osexp","C:\Users\ERP Testing Room\Desktop\Joanna\morph21","no","mono","no","18","no","white","no","yes","1080","legacy","70","70","C:/Users/ERP Testing Room/Desktop/Joanna/morph21/subject-134.csv","xpyriment","Jazzy James","3.1.4","0","/","NA","NA","NA","NA","space","/","450","NA","NA","NA","NA","141707","450","2","legacy","1024","2","48000","-16","AB_m21","134","even","CW_S","THRUSTER","2332","403312","401695","395395","144058","NA","NA","NA","NA","403302","402192","NA","401195","NA","401185","403302","2351","403512","NA","NA","402312","2333","2333","402704","401185","2333","402312","403512","morph21_Oliver/Morris","52","38215","71","yes","1280","24"
"300","73.6111111111","73.6111111111","537.833333333","537.833333333","black","no","xpyriment","legacy","legacy","0","207","NA","uniform","74206","1000","0.0134759992453","1","undefined","1","0","71","71","71","0","71","71","71","NA","71","71","0","71","NA","71","71","0","71","NA","71","NA","71","0","0","71","71","0","71","71","72","/","08/01/18 15:05:49","The main experiment item","yes","FIN__AB__M21__7%3A10%3A17.osexp","C:\Users\ERP Testing Room\Desktop\Joanna\morph21","no","mono","no","18","no","white","no","yes","1080","legacy","71","71","C:/Users/ERP Testing Room/Desktop/Joanna/morph21/subject-134.csv","xpyriment","Jazzy James","3.1.4","0","/","NA","NA","NA","NA","space","/","509","NA","NA","NA","NA","141707","509","2","legacy","1024","2","48000","-16","AB_m21","134","even","FILL_W","IRON","2332","407946","404846","406437","144058","NA","NA","NA","NA","406430","405343","NA","404345","NA","404338","406430","2351","408246","NA","NA","405437","2333","2333","405829","404338","2333","405437","408246","morph21_Oliver/Morris","53","38724","72","yes","1280","33"
"400","73.9726027397","73.9726027397","540.342465753","540.342465753","black","no","xpyriment","legacy","legacy","0","205","NA","uniform","59447","1000","0.0168217067304","1","undefined","1","0","72","72","72","0","72","72","72","NA","72","72","0","72","NA","72","72","0","72","NA","72","NA","72","0","0","72","72","0","72","72","73","z","08/01/18 15:05:49","The main experiment item","yes","FIN__AB__M21__7%3A10%3A17.osexp","C:\Users\ERP Testing Room\Desktop\Joanna\morph21","no","mono","no","18","no","white","no","yes","1080","legacy","72","72","C:/Users/ERP Testing Room/Desktop/Joanna/morph21/subject-134.csv","xpyriment","Jazzy James","3.1.4","0","z","NA","NA","NA","NA","space","z","721","NA","NA","NA","NA","141707","721","2","legacy","1024","2","48000","-16","AB_m21","134","even","NW_S_SIMP","MEDICALADY","2332","411129","409521","406437","144058","NA","NA","NA","NA","411122","410018","NA","409021","NA","409009","411122","2351","411529","NA","NA","410129","2333","2333","410521","409009","2333","410129","411529","morph21_Oliver/Morris","54","39445","73","yes","1280","18"
"350","72.972972973","72.972972973","544.175675676","544.175675676","black","no","xpyriment","legacy","legacy","0","202","NA","uniform","53438","1000","0.0187132751974","0","undefined","0","0","73","73","73","0","73","73","73","NA","73","73","0","73","NA","73","73","0","73","NA","73","NA","73","0","0","73","73","0","73","73","74","/","08/01/18 15:05:49","The main experiment item","yes","FIN__AB__M21__7%3A10%3A17.osexp","C:\Users\ERP Testing Room\Desktop\Joanna\morph21","no","mono","no","18","no","white","no","yes","1080","legacy","73","73","C:/Users/ERP Testing Room/Desktop/Joanna/morph21/subject-134.csv","xpyriment","Jazzy James","3.1.4","0","z","NA","NA","NA","NA","space","z","824","NA","NA","NA","NA","141707","824","2","legacy","1024","2","48000","-16","AB_m21","134","even","CW_L","GUILELESS","2332","414339","412755","406437","144058","NA","NA","NA","NA","411122","413252","NA","412254","NA","412250","414336","2351","414689","NA","NA","413347","2333","2333","413739","412250","2333","413347","414689","morph21_Oliver/Morris","54","40269","74","yes","1280","31"
"250","73.3333333333","73.3333333333","545.52","545.52","black","no","xpyriment","legacy","legacy","0","208","NA","uniform","64489","1000","0.0155065204919","undefined","undefined","1","0","74","74","74","0","74","74","74","NA","74","74","0","74","NA","74","74","0","74","NA","74","NA","74","0","0","74","74","0","74","74","75","z","08/01/18 15:05:49","The main experiment item","yes","FIN__AB__M21__7%3A10%3A17.osexp","C:\Users\ERP Testing Room\Desktop\Joanna\morph21","no","mono","no","18","no","white","no","yes","1080","legacy","74","74","C:/Users/ERP Testing Room/Desktop/Joanna/morph21/subject-134.csv","xpyriment","Jazzy James","3.1.4","0","space","space","NA","NA","NA","space","z","5174","5174","NA","NA","NA","141707","645","2","legacy","1024","2","48000","-16","AB_m21","134","even","FILL_NW","BUWL","2332","419122","416005","417614","144058","419380","NA","NA","NA","417604","416502","NA","415505","NA","415495","417604","2351","424555","NA","NA","416614","2333","2333","417005","415495","2333","416614","419372","morph21_Oliver/Morris","55","40914","75","yes","1280","9"
"300","73.6842105263","73.6842105263","546.815789474","546.815789474","black","no","xpyriment","legacy","legacy","0","205","NA","uniform","64527","1000","0.01549738869","1","undefined","1","0","75","75","75","0","75","75","75","NA","75","75","0","75","NA","75","75","0","75","NA","75","NA","75","0","0","75","75","0","75","75","76","z","08/01/18 15:05:49","The main experiment item","yes","FIN__AB__M21__7%3A10%3A17.osexp","C:\Users\ERP Testing Room\Desktop\Joanna\morph21","no","mono","no","18","no","white","no","yes","1080","legacy","75","75","C:/Users/ERP Testing Room/Desktop/Joanna/morph21/subject-134.csv","xpyriment","Jazzy James","3.1.4","0","z","space","NA","NA","NA","space","z","644","5174","NA","NA","NA","141707","644","2","legacy","1024","2","48000","-16","AB_m21","134","even","NW_S_SIMP","WARNODY","2332","427397","425814","417614","144058","419380","NA","NA","NA","427392","426311","NA","425314","NA","425307","427392","2351","427698","NA","NA","426398","2333","2333","426789","425307","2333","426397","427698","morph21_Oliver/Morris","56","41558","76","yes","1280","12"
"250","74.025974026","74.025974026","546.116883117","546.116883117","black","no","xpyriment","legacy","legacy","0","207","NA","uniform","70012","1000","0.0142832657259","1","undefined","1","0","76","76","76","0","76","76","76","NA","76","76","0","76","NA","76","76","0","76","NA","76","NA","76","0","0","76","76","0","76","76","77","/","08/01/18 15:05:49","The main experiment item","yes","FIN__AB__M21__7%3A10%3A17.osexp","C:\Users\ERP Testing Room\Desktop\Joanna\morph21","no","mono","no","18","no","white","no","yes","1080","legacy","76","76","C:/Users/ERP Testing Room/Desktop/Joanna/morph21/subject-134.csv","xpyriment","Jazzy James","3.1.4","0","/","space","NA","NA","NA","space","/","493","5174","NA","NA","NA","141707","493","2","legacy","1024","2","48000","-16","AB_m21","134","even","FILL_W","PACK","2332","430574","428981","417614","144058","419380","NA","NA","NA","430571","429478","NA","428481","NA","428475","430571","2351","430824","NA","NA","429581","2333","2333","429973","428474","2333","429581","430824","morph21_Oliver/Morris","57","42051","77","yes","1280","41"
"200","74.358974359","74.358974359","545.128205128","545.128205128","black","no","xpyriment","legacy","legacy","0","201","NA","uniform","69973","1000","0.014291226616","1","undefined","1","0","77","77","77","0","77","77","77","NA","77","77","0","77","NA","77","77","0","77","NA","77","NA","77","0","0","77","77","0","77","77","78","/","08/01/18 15:05:49","The main experiment item","yes","FIN__AB__M21__7%3A10%3A17.osexp","C:\Users\ERP Testing Room\Desktop\Joanna\morph21","no","mono","no","18","no","white","no","yes","1080","legacy","77","77","C:/Users/ERP Testing Room/Desktop/Joanna/morph21/subject-134.csv","xpyriment","Jazzy James","3.1.4","0","/","space","NA","NA","NA","space","/","469","5174","NA","NA","NA","141707","469","2","legacy","1024","2","48000","-16","AB_m21","134","even","CW_S","AMUSEMENT","2332","435290","432157","433782","144058","419380","NA","NA","NA","433776","432654","NA","431657","NA","431649","433776","2351","435491","NA","NA","432782","2333","2333","433174","431649","2333","432782","435491","morph21_Oliver/Morris","58","42520","78","yes","1280","38"
"350","74.6835443038","74.6835443038","545.594936709","545.594936709","black","no","xpyriment","legacy","legacy","0","205","NA","uniform","67835","1000","0.0147416525392","1","undefined","1","0","78","78","78","0","78","78","78","NA","78","78","0","78","NA","78","78","0","78","NA","78","NA","78","0","0","78","78","0","78","78","79","z","08/01/18 15:05:49","The main experiment item","yes","FIN__AB__M21__7%3A10%3A17.osexp","C:\Users\ERP Testing Room\Desktop\Joanna\morph21","no","mono","no","18","no","white","no","yes","1080","legacy","78","78","C:/Users/ERP Testing Room/Desktop/Joanna/morph21/subject-134.csv","xpyriment","Jazzy James","3.1.4","0","z","space","NA","NA","NA","space","z","582","5174","NA","NA","NA","141707","582","2","legacy","1024","2","48000","-16","AB_m21","134","even","NW_S_SIMP","BASKODY","2332","438324","436724","433782","144058","419380","NA","NA","NA","438317","437221","NA","436224","NA","436217","438317","2351","438674","NA","NA","437324","2333","2333","437716","436217","2333","437324","438674","morph21_Oliver/Morris","59","43102","79","yes","1280","10"
"200","73.75","73.75","545.4625","545.4625","black","no","xpyriment","legacy","legacy","0","203","NA","uniform","73571","1000","0.0135923121882","0","undefined","0","0","79","79","79","0","79","79","79","NA","79","79","0","79","NA","79","79","0","79","NA","79","NA","79","0","0","79","79","0","79","79","80","z","08/01/18 15:05:49","The main experiment item","yes","FIN__AB__M21__7%3A10%3A17.osexp","C:\Users\ERP Testing Room\Desktop\Joanna\morph21","no","mono","no","18","no","white","no","yes","1080","legacy","79","79","C:/Users/ERP Testing Room/Desktop/Joanna/morph21/subject-134.csv","xpyriment","Jazzy James","3.1.4","0","/","space","NA","NA","NA","space","/","535","5174","NA","NA","NA","141707","535","2","legacy","1024","2","48000","-16","AB_m21","134","even","NW_S_COMP","MELTANCE","2332","441499","439916","433782","144058","419380","NA","NA","NA","438317","440413","NA","439416","NA","439405","441490","2351","441699","NA","NA","440499","2333","2333","440891","439405","2333","440499","441699","morph21_Oliver/Morris","59","43637","80","yes","1280","1"
"300","74.0740740741","74.0740740741","543.765432099","543.765432099","black","no","xpyriment","legacy","legacy","0","201","NA","uniform","69055","1000","0.0144812106292","1","undefined","1","0","80","80","80","0","80","80","80","NA","80","80","0","80","NA","80","80","0","80","NA","80","NA","80","0","0","80","80","0","80","80","81","/","08/01/18 15:05:49","The main experiment item","yes","FIN__AB__M21__7%3A10%3A17.osexp","C:\Users\ERP Testing Room\Desktop\Joanna\morph21","no","mono","no","18","no","white","no","yes","1080","legacy","80","80","C:/Users/ERP Testing Room/Desktop/Joanna/morph21/subject-134.csv","xpyriment","Jazzy James","3.1.4","0","/","space","NA","NA","NA","space","/","408","5174","NA","NA","NA","141707","408","2","legacy","1024","2","48000","-16","AB_m21","134","even","CW_S","INSISTENT","2332","445983","442891","444474","144058","419380","NA","NA","NA","444467","443388","NA","442391","NA","442386","444467","2351","446283","NA","NA","443474","2333","2333","443866","442386","2333","443474","446283","morph21_Oliver/Morris","60","44045","81","yes","1280","9"
"200","74.3902439024","74.3902439024","542.829268293","542.829268293","black","no","xpyriment","legacy","legacy","0","207","NA","uniform","74110","1000","0.013493455674","1","undefined","1","0","81","81","81","0","81","81","81","NA","81","81","0","81","NA","81","81","0","81","NA","81","NA","81","0","0","81","81","0","81","81","82","/","08/01/18 15:05:49","The main experiment item","yes","FIN__AB__M21__7%3A10%3A17.osexp","C:\Users\ERP Testing Room\Desktop\Joanna\morph21","no","mono","no","18","no","white","no","yes","1080","legacy","81","81","C:/Users/ERP Testing Room/Desktop/Joanna/morph21/subject-134.csv","xpyriment","Jazzy James","3.1.4","0","/","space","NA","NA","NA","space","/","467","5174","NA","NA","NA","141707","467","2","legacy","1024","2","48000","-16","AB_m21","134","even","FILL_W","TEST","2332","449200","447600","444474","144058","419380","NA","NA","NA","449195","448098","NA","447099","NA","447092","449195","2351","449400","NA","NA","448200","2333","2333","448600","447092","2333","448200","449400","morph21_Oliver/Morris","61","44512","82","yes","1280","47"
"400","74.6987951807","74.6987951807","543.819277108","543.819277108","black","no","xpyriment","legacy","legacy","0","208","NA","uniform","67788","1000","0.0147518734879","1","undefined","1","0","82","82","82","0","82","82","82","NA","82","82","0","82","NA","82","82","0","82","NA","82","NA","82","0","0","82","82","0","82","82","83","z","08/01/18 15:05:49","The main experiment item","yes","FIN__AB__M21__7%3A10%3A17.osexp","C:\Users\ERP Testing Room\Desktop\Joanna\morph21","no","mono","no","18","no","white","no","yes","1080","legacy","82","82","C:/Users/ERP Testing Room/Desktop/Joanna/morph21/subject-134.csv","xpyriment","Jazzy James","3.1.4","0","z","space","NA","NA","NA","space","z","625","5174","NA","NA","NA","141707","625","2","legacy","1024","2","48000","-16","AB_m21","134","even","FILL_NW","FROES","2332","452242","450659","444474","144058","419380","NA","NA","NA","452234","451156","NA","450159","NA","450150","452234","2351","452642","NA","NA","451242","2333","2333","451634","450150","2333","451242","452642","morph21_Oliver/Morris","62","45137","83","yes","1280","21"
"200","73.8095238095","73.8095238095","542.011904762","542.011904762","black","no","xpyriment","legacy","legacy","0","205","NA","uniform","75669","1000","0.0132154515059","0","undefined","0","0","83","83","83","0","83","83","83","NA","83","83","0","83","NA","83","83","0","83","NA","83","NA","83","0","0","83","83","0","83","83","84","z","08/01/18 15:05:49","The main experiment item","yes","FIN__AB__M21__7%3A10%3A17.osexp","C:\Users\ERP Testing Room\Desktop\Joanna\morph21","no","mono","no","18","no","white","no","yes","1080","legacy","83","83","C:/Users/ERP Testing Room/Desktop/Joanna/morph21/subject-134.csv","xpyriment","Jazzy James","3.1.4","0","/","space","NA","NA","NA","space","/","392","5174","NA","NA","NA","141707","392","2","legacy","1024","2","48000","-16","AB_m21","134","even","NW_S_SIMP","THRILLANGE","2332","456951","453842","455442","144058","419380","NA","NA","NA","452234","454340","NA","453342","NA","453332","455433","2351","457151","NA","NA","454442","2333","2333","454834","453332","2333","454442","457151","morph21_Oliver/Morris","62","45529","84","yes","1280","22"
"400","74.1176470588","74.1176470588","542","542","black","no","xpyriment","legacy","legacy","0","202","NA","uniform","71716","1000","0.0139438897875","1","undefined","1","0","84","84","84","0","84","84","84","NA","84","84","0","84","NA","84","84","0","84","NA","84","NA","84","0","0","84","84","0","84","84","85","/","08/01/18 15:05:49","The main experiment item","yes","FIN__AB__M21__7%3A10%3A17.osexp","C:\Users\ERP Testing Room\Desktop\Joanna\morph21","no","mono","no","18","no","white","no","yes","1080","legacy","84","84","C:/Users/ERP Testing Room/Desktop/Joanna/morph21/subject-134.csv","xpyriment","Jazzy James","3.1.4","0","/","space","NA","NA","NA","space","/","541","5174","NA","NA","NA","141707","541","2","legacy","1024","2","48000","-16","AB_m21","134","even","CW_L","LOCKER","2332","460084","458484","455442","144058","419380","NA","NA","NA","460081","458981","NA","457984","NA","457977","460081","2351","460484","NA","NA","459093","2333","2333","459484","457977","2333","459093","460484","morph21_Oliver/Morris","63","46070","85","yes","1280","8"
"300","74.4186046512","74.4186046512","541.697674419","541.697674419","black","no","xpyriment","legacy","legacy","0","202","NA","uniform","70237","1000","0.0142375101442","1","undefined","1","0","85","85","85","0","85","85","85","NA","85","85","0","85","NA","85","85","0","85","NA","85","NA","85","0","0","85","85","0","85","85","86","/","08/01/18 15:05:49","The main experiment item","yes","FIN__AB__M21__7%3A10%3A17.osexp","C:\Users\ERP Testing Room\Desktop\Joanna\morph21","no","mono","no","18","no","white","no","yes","1080","legacy","85","85","C:/Users/ERP Testing Room/Desktop/Joanna/morph21/subject-134.csv","xpyriment","Jazzy James","3.1.4","0","/","space","NA","NA","NA","space","/","516","5174","NA","NA","NA","141707","516","2","legacy","1024","2","48000","-16","AB_m21","134","even","CW_L","MADNESS","2332","463326","461734","455442","144058","419380","NA","NA","NA","463321","462232","NA","461234","NA","461226","463321","2351","463626","NA","NA","462326","2333","2333","462726","461226","2333","462326","463626","morph21_Oliver/Morris","64","46586","86","yes","1280","41"
"350","74.7126436782","74.7126436782","541.011494253","541.011494253","black","no","xpyriment","legacy","legacy","0","202","NA","uniform","80437","1000","0.01243208971","1","undefined","1","0","86","86","86","0","86","86","86","NA","86","86","0","86","NA","86","86","0","86","NA","86","NA","86","0","0","86","86","0","86","86","87","/","08/01/18 15:05:49","The main experiment item","yes","FIN__AB__M21__7%3A10%3A17.osexp","C:\Users\ERP Testing Room\Desktop\Joanna\morph21","no","mono","no","18","no","white","no","yes","1080","legacy","86","86","C:/Users/ERP Testing Room/Desktop/Joanna/morph21/subject-134.csv","xpyriment","Jazzy James","3.1.4","0","/","space","NA","NA","NA","space","/","482","5174","NA","NA","NA","141707","482","2","legacy","1024","2","48000","-16","AB_m21","134","even","CW_L","GUARDING","2332","468086","464993","466577","144058","419380","NA","NA","NA","466569","465490","NA","464493","NA","464481","466569","2351","468436","NA","NA","465577","2333","2333","465969","464481","2333","465577","468436","morph21_Oliver/Morris","65","47068","87","yes","1280","26"
"400","75","75","546.102272727","546.102272727","black","no","xpyriment","legacy","legacy","0","206","NA","uniform","55717","1000","0.0179478435666","1","undefined","1","0","87","87","87","0","87","87","87","NA","87","87","0","87","NA","87","87","0","87","NA","87","NA","87","0","0","87","87","0","87","87","88","z","08/01/18 15:05:49","The main experiment item","yes","FIN__AB__M21__7%3A10%3A17.osexp","C:\Users\ERP Testing Room\Desktop\Joanna\morph21","no","mono","no","18","no","white","no","yes","1080","legacy","87","87","C:/Users/ERP Testing Room/Desktop/Joanna/morph21/subject-134.csv","xpyriment","Jazzy James","3.1.4","0","z","space","NA","NA","NA","space","z","989","5174","NA","NA","NA","141707","989","2","legacy","1024","2","48000","-16","AB_m21","134","even","NW_L_SIMP","POORIDY","2332","471269","469669","466577","144058","419380","NA","NA","NA","471266","470166","NA","469169","NA","469165","471266","2351","471669","NA","NA","470269","2333","2333","470669","469165","2333","470269","471669","morph21_Oliver/Morris","66","48057","88","yes","1280","13"
"200","74.1573033708","74.1573033708","543.438202247","543.438202247","black","no","xpyriment","legacy","legacy","0","203","NA","uniform","68794","1000","0.0145361514086","0","undefined","0","0","88","88","88","0","88","88","88","NA","88","88","0","88","NA","88","88","0","88","NA","88","NA","88","0","0","88","88","0","88","88","89","z","08/01/18 15:05:49","The main experiment item","yes","FIN__AB__M21__7%3A10%3A17.osexp","C:\Users\ERP Testing Room\Desktop\Joanna\morph21","no","mono","no","18","no","white","no","yes","1080","legacy","88","88","C:/Users/ERP Testing Room/Desktop/Joanna/morph21/subject-134.csv","xpyriment","Jazzy James","3.1.4","0","/","space","NA","NA","NA","space","/","309","5174","NA","NA","NA","141707","309","2","legacy","1024","2","48000","-16","AB_m21","134","even","NW_S_COMP","HAPPENANCE","2332","474469","472877","466577","144058","419380","NA","NA","NA","471266","473375","NA","472377","NA","472370","474462","2351","474669","NA","NA","473469","2333","2333","473861","472370","2333","473469","474669","morph21_Oliver/Morris","66","48366","89","yes","1280","2"
"200","74.4444444444","74.4444444444","542.4","542.4","black","no","xpyriment","legacy","legacy","0","201","NA","uniform","67817","1000","0.0147455652712","1","undefined","1","0","89","89","89","0","89","89","89","NA","89","89","0","89","NA","89","89","0","89","NA","89","NA","89","0","0","89","89","0","89","89","90","/","08/01/18 15:05:49","The main experiment item","yes","FIN__AB__M21__7%3A10%3A17.osexp","C:\Users\ERP Testing Room\Desktop\Joanna\morph21","no","mono","no","18","no","white","no","yes","1080","legacy","89","89","C:/Users/ERP Testing Room/Desktop/Joanna/morph21/subject-134.csv","xpyriment","Jazzy James","3.1.4","0","/","space","NA","NA","NA","space","/","450","5174","NA","NA","NA","141707","450","2","legacy","1024","2","48000","-16","AB_m21","134","even","CW_S","LOCALLY","2332","479036","475936","477528","144058","419380","NA","NA","NA","477519","476433","NA","475436","NA","475427","477519","2351","479236","NA","NA","476528","2333","2333","476919","475427","2333","476528","479236","morph21_Oliver/Morris","67","48816","90","yes","1280","37"
"300","74.7252747253","74.7252747253","543.956043956","543.956043956","black","no","xpyriment","legacy","legacy","0","204","NA","uniform","60491","1000","0.0165313848341","1","undefined","1","0","90","90","90","0","90","90","90","NA","90","90","0","90","NA","90","90","0","90","NA","90","NA","90","0","0","90","90","0","90","90","91","z","08/01/18 15:05:49","The main experiment item","yes","FIN__AB__M21__7%3A10%3A17.osexp","C:\Users\ERP Testing Room\Desktop\Joanna\morph21","no","mono","no","18","no","white","no","yes","1080","legacy","90","90","C:/Users/ERP Testing Room/Desktop/Joanna/morph21/subject-134.csv","xpyriment","Jazzy James","3.1.4","0","z","space","NA","NA","NA","space","z","684","5174","NA","NA","NA","141707","684","2","legacy","1024","2","48000","-16","AB_m21","134","even","NW_L_COMP","NORTHIZE","2332","482086","480478","477528","144058","419380","NA","NA","NA","482078","480975","NA","479978","NA","479972","482078","2351","482386","NA","NA","481086","2333","2333","481478","479972","2333","481086","482386","morph21_Oliver/Morris","68","49500","91","yes","1280","20"
