"ITI","acc","accuracy","average_response_time","avg_rt","background","bidi","canvas_backend","clock_backend","color_backend","compensation","cond_trig","condtrigtime","coordinates","coroutines_cycles","coroutines_duration","coroutines_mean_cycle_duration","correct","correct_instructions_1","correct_new_keyboard_response_1","count_BA_m21","count_ITI","count_blank_screen","count_blink_screen","count_block1","count_break1","count_break2","count_break3_1","count_canvas","count_correct_trigger","count_def_chain","count_end_screen","count_fixation_1","count_getting_started","count_inc_counter","count_incorrect_trigger","count_instructions_1","count_logger","count_logscript","count_new_coroutines","count_new_inline_script","count_new_keyboard_response_1","count_reset_counter_prep","count_reset_counter_run","count_responsescreen","count_sequence","count_start_trigger","count_target_present","count_word_trigger","counter","cresp","datetime","description","disable_garbage_collection","experiment_file","experiment_path","font_bold","font_family","font_italic","font_size","font_underline","foreground","form_clicks","fullscreen","height","keyboard_backend","live_row","live_row_block1","logfile","mouse_backend","opensesame_codename","opensesame_version","repeat_cycle","response","response_break1","response_break2","response_break3_1","response_end_screen","response_instructions_1","response_new_keyboard_response_1","response_time","response_time_break1","response_time_break2","response_time_break3_1","response_time_end_screen","response_time_instructions_1","response_time_new_keyboard_response_1","round_decimals","sampler_backend","sound_buf_size","sound_channels","sound_freq","sound_sample_size","start","subject_nr","subject_parity","targ_type","target","time_BA_m21","time_ITI","time_blank_screen","time_blink_screen","time_block1","time_break1","time_break2","time_break3_1","time_canvas","time_correct_trigger","time_def_chain","time_end_screen","time_fixation_1","time_getting_started","time_inc_counter","time_incorrect_trigger","time_instructions_1","time_logger","time_logscript","time_new_inline_script","time_new_keyboard_response_1","time_reset_counter_prep","time_reset_counter_run","time_responsescreen","time_sequence","time_start_trigger","time_target_present","time_word_trigger","title","total_correct","total_response_time","total_responses","uniform_coordinates","width","word_trig"
"200","0","0","988","988","black","no","xpyriment","legacy","legacy","0","203","NA","uniform","50084","1000","0.0199664563533","0","undefined","0","0","0","0","0","0","0","0","0","NA","0","0","0","0","NA","0","0","0","0","NA","0","NA","0","0","0","0","0","0","0","0","1","z","03/21/19 16:53:48","The main experiment item","yes","FIN__BA__M21__7%3A10%3A17.osexp","C:\Users\ERP Testing Room\Desktop\Joanna\morph21","no","mono","no","18","no","white","no","yes","1080","legacy","0","0","C:/Users/ERP Testing Room/Desktop/Joanna/morph21/subject-167.csv","xpyriment","Kafkaesque Koffka","3.2.5","0","None","NA","NA","NA","NA","space","None","988","NA","NA","NA","NA","32167","988","2","legacy","1024","2","48000","-16","BA_m21","167","odd","NW_S_COMP","ELMILT","1187","36388","34721","NA","33363","NA","NA","NA","NA","NA","35218","NA","34219","NA","34142","36385","1195","36588","NA","NA","35396","1187","1187","35788","34142","1187","35396","36588","morph21_Oliver/Morris","0","988","1","yes","1280","10"
"200","50","50","850.5","850.5","black","no","xpyriment","legacy","legacy","0","203","NA","uniform","60584","1000","0.016506008187","1","undefined","1","0","1","1","1","0","1","1","1","NA","1","1","0","1","NA","1","1","0","1","NA","1","NA","1","0","0","1","1","0","1","1","2","z","03/21/19 16:53:48","The main experiment item","yes","FIN__BA__M21__7%3A10%3A17.osexp","C:\Users\ERP Testing Room\Desktop\Joanna\morph21","no","mono","no","18","no","white","no","yes","1080","legacy","1","1","C:/Users/ERP Testing Room/Desktop/Joanna/morph21/subject-167.csv","xpyriment","Kafkaesque Koffka","3.2.5","0","z","NA","NA","NA","NA","space","z","713","NA","NA","NA","NA","32167","713","2","legacy","1024","2","48000","-16","BA_m21","167","odd","NW_S_COMP","DUMBIDY","1187","39513","37813","NA","33363","NA","NA","NA","NA","39504","38310","NA","37313","NA","37303","39504","1195","39713","NA","NA","38513","1187","1187","38904","37303","1187","38513","39713","morph21_Oliver/Morris","1","1701","2","yes","1280","12"
"300","66.6666666667","66.6666666667","712.333333333","712.333333333","black","no","xpyriment","legacy","legacy","0","204","NA","uniform","67035","1000","0.0149175803685","1","undefined","1","0","2","2","2","0","2","2","2","NA","2","2","0","2","NA","2","2","0","2","NA","2","NA","2","0","0","2","2","0","2","2","3","z","03/21/19 16:53:48","The main experiment item","yes","FIN__BA__M21__7%3A10%3A17.osexp","C:\Users\ERP Testing Room\Desktop\Joanna\morph21","no","mono","no","18","no","white","no","yes","1080","legacy","2","2","C:/Users/ERP Testing Room/Desktop/Joanna/morph21/subject-167.csv","xpyriment","Kafkaesque Koffka","3.2.5","0","z","NA","NA","NA","NA","space","z","436","NA","NA","NA","NA","32167","436","2","legacy","1024","2","48000","-16","BA_m21","167","odd","NW_L_COMP","KINGILM","1187","44121","40930","42613","33363","NA","NA","NA","NA","42606","41427","NA","40421","NA","40415","42606","1195","44422","NA","NA","41613","1187","1187","42005","40415","1187","41613","44422","morph21_Oliver/Morris","2","2137","3","yes","1280","19"
"250","75","75","707.25","707.25","black","no","xpyriment","legacy","legacy","0","201","NA","uniform","61387","1000","0.0162900939938","1","undefined","1","0","3","3","3","0","3","3","3","NA","3","3","0","3","NA","3","3","0","3","NA","3","NA","3","0","0","3","3","0","3","3","4","/","03/21/19 16:53:48","The main experiment item","yes","FIN__BA__M21__7%3A10%3A17.osexp","C:\Users\ERP Testing Room\Desktop\Joanna\morph21","no","mono","no","18","no","white","no","yes","1080","legacy","3","3","C:/Users/ERP Testing Room/Desktop/Joanna/morph21/subject-167.csv","xpyriment","Kafkaesque Koffka","3.2.5","0","/","NA","NA","NA","NA","space","/","692","NA","NA","NA","NA","32167","692","2","legacy","1024","2","48000","-16","BA_m21","167","odd","CW_S","MOSSY","1187","47397","45680","42613","33363","NA","NA","NA","NA","47388","46177","NA","45172","NA","45164","47388","1195","47647","NA","NA","46397","1187","1187","46788","45164","1187","46397","47647","morph21_Oliver/Morris","3","2829","4","yes","1280","47"
"250","80","80","679.8","679.8","black","no","xpyriment","legacy","legacy","0","201","NA","uniform","56516","1000","0.0176941043244","1","undefined","1","0","4","4","4","0","4","4","4","NA","4","4","0","4","NA","4","4","0","4","NA","4","NA","4","0","0","4","4","0","4","4","5","/","03/21/19 16:53:48","The main experiment item","yes","FIN__BA__M21__7%3A10%3A17.osexp","C:\Users\ERP Testing Room\Desktop\Joanna\morph21","no","mono","no","18","no","white","no","yes","1080","legacy","4","4","C:/Users/ERP Testing Room/Desktop/Joanna/morph21/subject-167.csv","xpyriment","Kafkaesque Koffka","3.2.5","0","/","NA","NA","NA","NA","space","/","570","NA","NA","NA","NA","32167","570","2","legacy","1024","2","48000","-16","BA_m21","167","odd","CW_S","TUTORING","1187","50648","48948","42613","33363","NA","NA","NA","NA","50640","49445","NA","48447","NA","48436","50640","1195","50898","NA","NA","49648","1187","1187","50039","48436","1187","49648","50898","morph21_Oliver/Morris","4","3399","5","yes","1280","27"
"200","83.3333333333","83.3333333333","684.333333333","684.333333333","black","no","xpyriment","legacy","legacy","0","204","NA","uniform","59621","1000","0.0167726136764","1","undefined","1","0","5","5","5","0","5","5","5","NA","5","5","0","5","NA","5","5","0","5","NA","5","NA","5","0","0","5","5","0","5","5","6","z","03/21/19 16:53:48","The main experiment item","yes","FIN__BA__M21__7%3A10%3A17.osexp","C:\Users\ERP Testing Room\Desktop\Joanna\morph21","no","mono","no","18","no","white","no","yes","1080","legacy","5","5","C:/Users/ERP Testing Room/Desktop/Joanna/morph21/subject-167.csv","xpyriment","Kafkaesque Koffka","3.2.5","0","z","NA","NA","NA","NA","space","z","707","NA","NA","NA","NA","32167","707","2","legacy","1024","2","48000","-16","BA_m21","167","odd","NW_L_COMP","FLIPODY","1187","55348","52123","53839","33363","NA","NA","NA","NA","53836","52620","NA","51623","NA","51616","53836","1195","55548","NA","NA","52839","1187","1187","53239","51616","1187","52839","55548","morph21_Oliver/Morris","5","4106","6","yes","1280","16"
"400","71.4285714286","71.4285714286","680.285714286","680.285714286","black","no","xpyriment","legacy","legacy","0","207","NA","uniform","61043","1000","0.0163818947299","0","undefined","0","0","6","6","6","0","6","6","6","NA","6","6","0","6","NA","6","6","0","6","NA","6","NA","6","0","0","6","6","0","6","6","7","/","03/21/19 16:53:48","The main experiment item","yes","FIN__BA__M21__7%3A10%3A17.osexp","C:\Users\ERP Testing Room\Desktop\Joanna\morph21","no","mono","no","18","no","white","no","yes","1080","legacy","6","6","C:/Users/ERP Testing Room/Desktop/Joanna/morph21/subject-167.csv","xpyriment","Kafkaesque Koffka","3.2.5","0","z","NA","NA","NA","NA","space","z","656","NA","NA","NA","NA","32167","656","2","legacy","1024","2","48000","-16","BA_m21","167","odd","FILL_W","LITHE","1187","58473","56823","53839","33363","NA","NA","NA","NA","53836","57320","NA","56323","NA","56316","58469","1195","58873","NA","NA","57481","1187","1187","57873","56316","1187","57481","58873","morph21_Oliver/Morris","5","4762","7","yes","1280","23"
"400","75","75","666.5","666.5","black","no","xpyriment","legacy","legacy","0","202","NA","uniform","65524","1000","0.0152615835419","1","undefined","1","0","7","7","7","0","7","7","7","NA","7","7","0","7","NA","7","7","0","7","NA","7","NA","7","0","0","7","7","0","7","7","8","/","03/21/19 16:53:48","The main experiment item","yes","FIN__BA__M21__7%3A10%3A17.osexp","C:\Users\ERP Testing Room\Desktop\Joanna\morph21","no","mono","no","18","no","white","no","yes","1080","legacy","7","7","C:/Users/ERP Testing Room/Desktop/Joanna/morph21/subject-167.csv","xpyriment","Kafkaesque Koffka","3.2.5","0","/","NA","NA","NA","NA","space","/","570","NA","NA","NA","NA","32167","570","2","legacy","1024","2","48000","-16","BA_m21","167","odd","CW_L","STYLISH","1187","61806","60098","53839","33363","NA","NA","NA","NA","61799","60595","NA","59598","NA","59594","61799","1195","62207","NA","NA","60807","1187","1187","61198","59594","1187","60807","62207","morph21_Oliver/Morris","6","5332","8","yes","1280","29"
"300","77.7777777778","77.7777777778","664.333333333","664.333333333","black","no","xpyriment","legacy","legacy","0","201","NA","uniform","64096","1000","0.0156015976036","1","undefined","1","0","8","8","8","0","8","8","8","NA","8","8","0","8","NA","8","8","0","8","NA","8","NA","8","0","0","8","8","0","8","8","9","/","03/21/19 16:53:48","The main experiment item","yes","FIN__BA__M21__7%3A10%3A17.osexp","C:\Users\ERP Testing Room\Desktop\Joanna\morph21","no","mono","no","18","no","white","no","yes","1080","legacy","8","8","C:/Users/ERP Testing Room/Desktop/Joanna/morph21/subject-167.csv","xpyriment","Kafkaesque Koffka","3.2.5","0","/","NA","NA","NA","NA","space","/","647","NA","NA","NA","NA","32167","647","2","legacy","1024","2","48000","-16","BA_m21","167","odd","CW_S","BUYER","1187","66608","63415","65098","33363","NA","NA","NA","NA","65095","63912","NA","62907","NA","62896","65095","1195","66908","NA","NA","64098","1187","1187","64498","62896","1187","64098","66908","morph21_Oliver/Morris","7","5979","9","yes","1280","21"
"250","80","80","655.8","655.8","black","no","xpyriment","legacy","legacy","0","207","NA","uniform","57207","1000","0.0174803782754","1","undefined","1","0","9","9","9","0","9","9","9","NA","9","9","0","9","NA","9","9","0","9","NA","9","NA","9","0","0","9","9","0","9","9","10","/","03/21/19 16:53:48","The main experiment item","yes","FIN__BA__M21__7%3A10%3A17.osexp","C:\Users\ERP Testing Room\Desktop\Joanna\morph21","no","mono","no","18","no","white","no","yes","1080","legacy","9","9","C:/Users/ERP Testing Room/Desktop/Joanna/morph21/subject-167.csv","xpyriment","Kafkaesque Koffka","3.2.5","0","/","NA","NA","NA","NA","space","/","579","NA","NA","NA","NA","32167","579","2","legacy","1024","2","48000","-16","BA_m21","167","odd","FILL_W","TREAT","1187","69800","68116","65098","33363","NA","NA","NA","NA","69789","68613","NA","67616","NA","67604","69789","1195","70050","NA","NA","68799","1187","1187","69191","67604","1187","68799","70050","morph21_Oliver/Morris","8","6558","10","yes","1280","48"
"350","81.8181818182","81.8181818182","651.727272727","651.727272727","black","no","xpyriment","legacy","legacy","0","203","NA","uniform","69495","1000","0.0143895244262","1","undefined","1","0","10","10","10","0","10","10","10","NA","10","10","0","10","NA","10","10","0","10","NA","10","NA","10","0","0","10","10","0","10","10","11","z","03/21/19 16:53:48","The main experiment item","yes","FIN__BA__M21__7%3A10%3A17.osexp","C:\Users\ERP Testing Room\Desktop\Joanna\morph21","no","mono","no","18","no","white","no","yes","1080","legacy","10","10","C:/Users/ERP Testing Room/Desktop/Joanna/morph21/subject-167.csv","xpyriment","Kafkaesque Koffka","3.2.5","0","z","NA","NA","NA","NA","space","z","611","NA","NA","NA","NA","32167","611","2","legacy","1024","2","48000","-16","BA_m21","167","odd","NW_S_COMP","DEBTITH","1187","72991","71300","65098","33363","NA","NA","NA","NA","72984","71797","NA","70800","NA","70795","72984","1195","73341","NA","NA","71991","1187","1187","72383","70795","1187","71991","73341","morph21_Oliver/Morris","9","7169","11","yes","1280","22"
"300","75","75","634.416666667","634.416666667","black","no","xpyriment","legacy","legacy","0","205","NA","uniform","68926","1000","0.0145083132635","0","undefined","0","0","11","11","11","0","11","11","11","NA","11","11","0","11","NA","11","11","0","11","NA","11","NA","11","0","0","11","11","0","11","11","12","z","03/21/19 16:53:48","The main experiment item","yes","FIN__BA__M21__7%3A10%3A17.osexp","C:\Users\ERP Testing Room\Desktop\Joanna\morph21","no","mono","no","18","no","white","no","yes","1080","legacy","11","11","C:/Users/ERP Testing Room/Desktop/Joanna/morph21/subject-167.csv","xpyriment","Kafkaesque Koffka","3.2.5","0","/","NA","NA","NA","NA","space","/","444","NA","NA","NA","NA","32167","444","2","legacy","1024","2","48000","-16","BA_m21","167","odd","NW_S_SIMP","HELMETOUS","1187","77650","74433","76141","33363","NA","NA","NA","NA","72984","74930","NA","73933","NA","73926","76137","1195","77950","NA","NA","75150","1187","1187","75541","73926","1187","75150","77950","morph21_Oliver/Morris","9","7613","12","yes","1280","14"
"350","76.9230769231","76.9230769231","625.923076923","625.923076923","black","no","xpyriment","legacy","legacy","0","201","NA","uniform","62820","1000","0.0159184972939","1","undefined","1","0","12","12","12","0","12","12","12","NA","12","12","0","12","NA","12","12","0","12","NA","12","NA","12","0","0","12","12","0","12","12","13","/","03/21/19 16:53:48","The main experiment item","yes","FIN__BA__M21__7%3A10%3A17.osexp","C:\Users\ERP Testing Room\Desktop\Joanna\morph21","no","mono","no","18","no","white","no","yes","1080","legacy","12","12","C:/Users/ERP Testing Room/Desktop/Joanna/morph21/subject-167.csv","xpyriment","Kafkaesque Koffka","3.2.5","0","/","NA","NA","NA","NA","space","/","524","NA","NA","NA","NA","32167","524","2","legacy","1024","2","48000","-16","BA_m21","167","odd","CW_S","NEATLY","1187","80908","79233","76141","33363","NA","NA","NA","NA","80906","79730","NA","78733","NA","78725","80906","1195","81258","NA","NA","79917","1187","1187","80308","78725","1187","79917","81258","morph21_Oliver/Morris","10","8137","13","yes","1280","33"
"400","71.4285714286","71.4285714286","621.142857143","621.142857143","black","no","xpyriment","legacy","legacy","0","205","NA","uniform","61525","1000","0.0162535554653","0","undefined","0","0","13","13","13","0","13","13","13","NA","13","13","0","13","NA","13","13","0","13","NA","13","NA","13","0","0","13","13","0","13","13","14","z","03/21/19 16:53:48","The main experiment item","yes","FIN__BA__M21__7%3A10%3A17.osexp","C:\Users\ERP Testing Room\Desktop\Joanna\morph21","no","mono","no","18","no","white","no","yes","1080","legacy","13","13","C:/Users/ERP Testing Room/Desktop/Joanna/morph21/subject-167.csv","xpyriment","Kafkaesque Koffka","3.2.5","0","/","NA","NA","NA","NA","space","/","559","NA","NA","NA","NA","32167","559","2","legacy","1024","2","48000","-16","BA_m21","167","odd","NW_S_SIMP","URNIST","1187","84043","82375","76141","33363","NA","NA","NA","NA","80906","82872","NA","81875","NA","81866","84032","1195","84443","NA","NA","83042","1187","1187","83433","81866","1187","83042","84443","morph21_Oliver/Morris","10","8696","14","yes","1280","5"
"300","73.3333333333","73.3333333333","614.466666667","614.466666667","black","no","xpyriment","legacy","legacy","0","202","NA","uniform","69005","1000","0.0144917034997","1","undefined","1","0","14","14","14","0","14","14","14","NA","14","14","0","14","NA","14","14","0","14","NA","14","NA","14","0","0","14","14","0","14","14","15","/","03/21/19 16:53:48","The main experiment item","yes","FIN__BA__M21__7%3A10%3A17.osexp","C:\Users\ERP Testing Room\Desktop\Joanna\morph21","no","mono","no","18","no","white","no","yes","1080","legacy","14","14","C:/Users/ERP Testing Room/Desktop/Joanna/morph21/subject-167.csv","xpyriment","Kafkaesque Koffka","3.2.5","0","/","NA","NA","NA","NA","space","/","521","NA","NA","NA","NA","32167","521","2","legacy","1024","2","48000","-16","BA_m21","167","odd","CW_L","COMPOSER","1187","88901","85676","87393","33363","NA","NA","NA","NA","87384","86173","NA","85176","NA","85170","87384","1195","89202","NA","NA","86393","1187","1187","86785","85170","1187","86393","89202","morph21_Oliver/Morris","11","9217","15","yes","1280","6"
"300","75","75","605.375","605.375","black","no","xpyriment","legacy","legacy","0","201","NA","uniform","66164","1000","0.0151139592528","1","undefined","1","0","15","15","15","0","15","15","15","NA","15","15","0","15","NA","15","15","0","15","NA","15","NA","15","0","0","15","15","0","15","15","16","/","03/21/19 16:53:48","The main experiment item","yes","FIN__BA__M21__7%3A10%3A17.osexp","C:\Users\ERP Testing Room\Desktop\Joanna\morph21","no","mono","no","18","no","white","no","yes","1080","legacy","15","15","C:/Users/ERP Testing Room/Desktop/Joanna/morph21/subject-167.csv","xpyriment","Kafkaesque Koffka","3.2.5","0","/","NA","NA","NA","NA","space","/","469","NA","NA","NA","NA","32167","469","2","legacy","1024","2","48000","-16","BA_m21","167","odd","CW_S","MAGICAL","1187","92076","90343","87393","33363","NA","NA","NA","NA","92066","90840","NA","89843","NA","89840","92066","1195","92376","NA","NA","91077","1187","1187","91468","89840","1187","91076","92376","morph21_Oliver/Morris","12","9686","16","yes","1280","4"
"350","76.4705882353","76.4705882353","599.235294118","599.235294118","black","no","xpyriment","legacy","legacy","0","207","NA","uniform","63152","1000","0.015834811249","1","undefined","1","0","16","16","16","0","16","16","16","NA","16","16","0","16","NA","16","16","0","16","NA","16","NA","16","0","0","16","16","0","16","16","17","/","03/21/19 16:53:48","The main experiment item","yes","FIN__BA__M21__7%3A10%3A17.osexp","C:\Users\ERP Testing Room\Desktop\Joanna\morph21","no","mono","no","18","no","white","no","yes","1080","legacy","16","16","C:/Users/ERP Testing Room/Desktop/Joanna/morph21/subject-167.csv","xpyriment","Kafkaesque Koffka","3.2.5","0","/","NA","NA","NA","NA","space","/","501","NA","NA","NA","NA","32167","501","2","legacy","1024","2","48000","-16","BA_m21","167","odd","FILL_W","GLOOM","1187","95285","93635","87393","33363","NA","NA","NA","NA","95281","94132","NA","93135","NA","93123","95281","1195","95635","NA","NA","94285","1187","1187","94685","93123","1187","94285","95635","morph21_Oliver/Morris","13","10187","17","yes","1280","14"
"300","72.2222222222","72.2222222222","587.277777778","587.277777778","black","no","xpyriment","legacy","legacy","0","208","NA","uniform","67302","1000","0.0148583994532","0","undefined","0","0","17","17","17","0","17","17","17","NA","17","17","0","17","NA","17","17","0","17","NA","17","NA","17","0","0","17","17","0","17","17","18","z","03/21/19 16:53:48","The main experiment item","yes","FIN__BA__M21__7%3A10%3A17.osexp","C:\Users\ERP Testing Room\Desktop\Joanna\morph21","no","mono","no","18","no","white","no","yes","1080","legacy","17","17","C:/Users/ERP Testing Room/Desktop/Joanna/morph21/subject-167.csv","xpyriment","Kafkaesque Koffka","3.2.5","0","/","NA","NA","NA","NA","space","/","384","NA","NA","NA","NA","32167","384","2","legacy","1024","2","48000","-16","BA_m21","167","odd","FILL_NW","BAFED","1187","100094","96868","98585","33363","NA","NA","NA","NA","95281","97366","NA","96368","NA","96363","98575","1195","100394","NA","NA","97585","1187","1187","97977","96362","1187","97585","100394","morph21_Oliver/Morris","13","10571","18","yes","1280","1"
"350","73.6842105263","73.6842105263","583.052631579","583.052631579","black","no","xpyriment","legacy","legacy","0","201","NA","uniform","68971","1000","0.0144988473416","1","undefined","1","0","18","18","18","0","18","18","18","NA","18","18","0","18","NA","18","18","0","18","NA","18","NA","18","0","0","18","18","0","18","18","19","/","03/21/19 16:53:48","The main experiment item","yes","FIN__BA__M21__7%3A10%3A17.osexp","C:\Users\ERP Testing Room\Desktop\Joanna\morph21","no","mono","no","18","no","white","no","yes","1080","legacy","18","18","C:/Users/ERP Testing Room/Desktop/Joanna/morph21/subject-167.csv","xpyriment","Kafkaesque Koffka","3.2.5","0","/","NA","NA","NA","NA","space","/","507","NA","NA","NA","NA","32167","507","2","legacy","1024","2","48000","-16","BA_m21","167","odd","CW_S","STRANGENESS","1187","103303","101620","98585","33363","NA","NA","NA","NA","103294","102117","NA","101119","NA","101110","103294","1195","103653","NA","NA","102303","1187","1187","102695","101110","1187","102303","103653","morph21_Oliver/Morris","14","11078","19","yes","1280","46"
"250","75","75","574.35","574.35","black","no","xpyriment","legacy","legacy","0","201","NA","uniform","72233","1000","0.0138440878823","1","undefined","1","0","19","19","19","0","19","19","19","NA","19","19","0","19","NA","19","19","0","19","NA","19","NA","19","0","0","19","19","0","19","19","20","/","03/21/19 16:53:48","The main experiment item","yes","FIN__BA__M21__7%3A10%3A17.osexp","C:\Users\ERP Testing Room\Desktop\Joanna\morph21","no","mono","no","18","no","white","no","yes","1080","legacy","19","19","C:/Users/ERP Testing Room/Desktop/Joanna/morph21/subject-167.csv","xpyriment","Kafkaesque Koffka","3.2.5","0","/","NA","NA","NA","NA","space","/","409","NA","NA","NA","NA","32167","409","2","legacy","1024","2","48000","-16","BA_m21","167","odd","CW_S","PLANNER","1187","106561","104853","98585","33363","NA","NA","NA","NA","106553","105350","NA","104353","NA","104347","106553","1195","106811","NA","NA","105561","1187","1187","105953","104347","1187","105561","106811","morph21_Oliver/Morris","15","11487","20","yes","1280","22"
"200","76.1904761905","76.1904761905","566.333333333","566.333333333","black","no","xpyriment","legacy","legacy","0","207","NA","uniform","72702","1000","0.013754779786","1","undefined","1","0","20","20","20","0","20","20","20","NA","20","20","0","20","NA","20","20","0","20","NA","20","NA","20","0","0","20","20","0","20","20","21","/","03/21/19 16:53:48","The main experiment item","yes","FIN__BA__M21__7%3A10%3A17.osexp","C:\Users\ERP Testing Room\Desktop\Joanna\morph21","no","mono","no","18","no","white","no","yes","1080","legacy","20","20","C:/Users/ERP Testing Room/Desktop/Joanna/morph21/subject-167.csv","xpyriment","Kafkaesque Koffka","3.2.5","0","/","NA","NA","NA","NA","space","/","406","NA","NA","NA","NA","32167","406","2","legacy","1024","2","48000","-16","BA_m21","167","odd","FILL_W","OLD","1187","111137","107945","109628","33363","NA","NA","NA","NA","109619","108442","NA","107445","NA","107440","109619","1195","111337","NA","NA","108628","1187","1187","109020","107440","1187","108628","111337","morph21_Oliver/Morris","16","11893","21","yes","1280","44"
"200","77.2727272727","77.2727272727","563.090909091","563.090909091","black","no","xpyriment","legacy","legacy","0","201","NA","uniform","67771","1000","0.014755573918","1","undefined","1","0","21","21","21","0","21","21","21","NA","21","21","0","21","NA","21","21","0","21","NA","21","NA","21","0","0","21","21","0","21","21","22","/","03/21/19 16:53:48","The main experiment item","yes","FIN__BA__M21__7%3A10%3A17.osexp","C:\Users\ERP Testing Room\Desktop\Joanna\morph21","no","mono","no","18","no","white","no","yes","1080","legacy","21","21","C:/Users/ERP Testing Room/Desktop/Joanna/morph21/subject-167.csv","xpyriment","Kafkaesque Koffka","3.2.5","0","/","NA","NA","NA","NA","space","/","495","NA","NA","NA","NA","32167","495","2","legacy","1024","2","48000","-16","BA_m21","167","odd","CW_S","THRUSTER","1187","114195","112512","109628","33363","NA","NA","NA","NA","114192","113009","NA","112012","NA","112006","114192","1195","114395","NA","NA","113195","1187","1187","113595","112006","1187","113195","114395","morph21_Oliver/Morris","17","12388","22","yes","1280","24"
"350","78.2608695652","78.2608695652","556.739130435","556.739130435","black","no","xpyriment","legacy","legacy","0","207","NA","uniform","68280","1000","0.0146455770357","1","undefined","1","0","22","22","22","0","22","22","22","NA","22","22","0","22","NA","22","22","0","22","NA","22","NA","22","0","0","22","22","0","22","22","23","/","03/21/19 16:53:48","The main experiment item","yes","FIN__BA__M21__7%3A10%3A17.osexp","C:\Users\ERP Testing Room\Desktop\Joanna\morph21","no","mono","no","18","no","white","no","yes","1080","legacy","22","22","C:/Users/ERP Testing Room/Desktop/Joanna/morph21/subject-167.csv","xpyriment","Kafkaesque Koffka","3.2.5","0","/","NA","NA","NA","NA","space","/","417","NA","NA","NA","NA","32167","417","2","legacy","1024","2","48000","-16","BA_m21","167","odd","FILL_W","LIFT","1187","117312","115612","109628","33363","NA","NA","NA","NA","117307","116109","NA","115112","NA","115101","117307","1195","117662","NA","NA","116312","1187","1187","116712","115101","1187","116312","117662","morph21_Oliver/Morris","18","12805","23","yes","1280","39"
"300","79.1666666667","79.1666666667","559.166666667","559.166666667","black","no","xpyriment","legacy","legacy","0","204","NA","uniform","67150","1000","0.0148920327625","1","undefined","1","0","23","23","23","0","23","23","23","NA","23","23","0","23","NA","23","23","0","23","NA","23","NA","23","0","0","23","23","0","23","23","24","z","03/21/19 16:53:48","The main experiment item","yes","FIN__BA__M21__7%3A10%3A17.osexp","C:\Users\ERP Testing Room\Desktop\Joanna\morph21","no","mono","no","18","no","white","no","yes","1080","legacy","23","23","C:/Users/ERP Testing Room/Desktop/Joanna/morph21/subject-167.csv","xpyriment","Kafkaesque Koffka","3.2.5","0","z","NA","NA","NA","NA","space","z","615","NA","NA","NA","NA","32167","615","2","legacy","1024","2","48000","-16","BA_m21","167","odd","NW_L_COMP","IME","1187","122071","118871","120563","33363","NA","NA","NA","NA","120559","119368","NA","118370","NA","118363","120559","1195","122372","NA","NA","119571","1187","1187","119963","118363","1187","119571","122372","morph21_Oliver/Morris","19","13420","24","yes","1280","20"
"250","76","76","554.96","554.96","black","no","xpyriment","legacy","legacy","0","205","NA","uniform","65532","1000","0.0152597204419","0","undefined","0","0","24","24","24","0","24","24","24","NA","24","24","0","24","NA","24","24","0","24","NA","24","NA","24","0","0","24","24","0","24","24","25","z","03/21/19 16:53:48","The main experiment item","yes","FIN__BA__M21__7%3A10%3A17.osexp","C:\Users\ERP Testing Room\Desktop\Joanna\morph21","no","mono","no","18","no","white","no","yes","1080","legacy","24","24","C:/Users/ERP Testing Room/Desktop/Joanna/morph21/subject-167.csv","xpyriment","Kafkaesque Koffka","3.2.5","0","/","NA","NA","NA","NA","space","/","454","NA","NA","NA","NA","32167","454","2","legacy","1024","2","48000","-16","BA_m21","167","odd","NW_S_SIMP","ZOOMFUL","1187","125188","123505","120563","33363","NA","NA","NA","NA","120559","124002","NA","122996","NA","122990","125183","1195","125438","NA","NA","124188","1187","1187","124588","122989","1187","124188","125438","morph21_Oliver/Morris","19","13874","25","yes","1280","19"
"200","76.9230769231","76.9230769231","561.769230769","561.769230769","black","no","xpyriment","legacy","legacy","0","205","NA","uniform","52311","1000","0.0191164382252","1","undefined","1","0","25","25","25","0","25","25","25","NA","25","25","0","25","NA","25","25","0","25","NA","25","NA","25","0","0","25","25","0","25","25","26","z","03/21/19 16:53:48","The main experiment item","yes","FIN__BA__M21__7%3A10%3A17.osexp","C:\Users\ERP Testing Room\Desktop\Joanna\morph21","no","mono","no","18","no","white","no","yes","1080","legacy","25","25","C:/Users/ERP Testing Room/Desktop/Joanna/morph21/subject-167.csv","xpyriment","Kafkaesque Koffka","3.2.5","0","z","NA","NA","NA","NA","space","z","732","NA","NA","NA","NA","32167","732","2","legacy","1024","2","48000","-16","BA_m21","167","odd","NW_S_SIMP","JAWLY","1187","128222","126547","120563","33363","NA","NA","NA","NA","128214","127044","NA","126047","NA","126037","128214","1195","128422","NA","NA","127222","1187","1187","127613","126037","1187","127222","128422","morph21_Oliver/Morris","20","14606","26","yes","1280","7"
"300","74.0740740741","74.0740740741","557.555555556","557.555555556","black","no","xpyriment","legacy","legacy","0","205","NA","uniform","70157","1000","0.0142537451715","0","undefined","0","0","26","26","26","0","26","26","26","NA","26","26","0","26","NA","26","26","0","26","NA","26","NA","26","0","0","26","26","0","26","26","27","z","03/21/19 16:53:48","The main experiment item","yes","FIN__BA__M21__7%3A10%3A17.osexp","C:\Users\ERP Testing Room\Desktop\Joanna\morph21","no","mono","no","18","no","white","no","yes","1080","legacy","26","26","C:/Users/ERP Testing Room/Desktop/Joanna/morph21/subject-167.csv","xpyriment","Kafkaesque Koffka","3.2.5","0","/","NA","NA","NA","NA","space","/","448","NA","NA","NA","NA","32167","448","2","legacy","1024","2","48000","-16","BA_m21","167","odd","NW_S_SIMP","NEXTNESS","1187","132797","129597","131288","33363","NA","NA","NA","NA","128214","130094","NA","129097","NA","129092","131280","1195","133097","NA","NA","130289","1187","1187","130680","129092","1187","130288","133097","morph21_Oliver/Morris","20","15054","27","yes","1280","9"
"250","75","75","555.571428571","555.571428571","black","no","xpyriment","legacy","legacy","0","201","NA","uniform","72249","1000","0.0138410220211","1","undefined","1","0","27","27","27","0","27","27","27","NA","27","27","0","27","NA","27","27","0","27","NA","27","NA","27","0","0","27","27","0","27","27","28","/","03/21/19 16:53:48","The main experiment item","yes","FIN__BA__M21__7%3A10%3A17.osexp","C:\Users\ERP Testing Room\Desktop\Joanna\morph21","no","mono","no","18","no","white","no","yes","1080","legacy","27","27","C:/Users/ERP Testing Room/Desktop/Joanna/morph21/subject-167.csv","xpyriment","Kafkaesque Koffka","3.2.5","0","/","NA","NA","NA","NA","space","/","502","NA","NA","NA","NA","32167","502","2","legacy","1024","2","48000","-16","BA_m21","167","odd","CW_S","TOSSING","1187","135947","134239","131288","33363","NA","NA","NA","NA","135941","134736","NA","133739","NA","133729","135941","1195","136197","NA","NA","134947","1187","1187","135339","133729","1187","134947","136197","morph21_Oliver/Morris","21","15556","28","yes","1280","26"
"250","75.8620689655","75.8620689655","558.620689655","558.620689655","black","no","xpyriment","legacy","legacy","0","203","NA","uniform","61943","1000","0.0161438742069","1","undefined","1","0","28","28","28","0","28","28","28","NA","28","28","0","28","NA","28","28","0","28","NA","28","NA","28","0","0","28","28","0","28","28","29","z","03/21/19 16:53:48","The main experiment item","yes","FIN__BA__M21__7%3A10%3A17.osexp","C:\Users\ERP Testing Room\Desktop\Joanna\morph21","no","mono","no","18","no","white","no","yes","1080","legacy","28","28","C:/Users/ERP Testing Room/Desktop/Joanna/morph21/subject-167.csv","xpyriment","Kafkaesque Koffka","3.2.5","0","z","NA","NA","NA","NA","space","z","644","NA","NA","NA","NA","32167","644","2","legacy","1024","2","48000","-16","BA_m21","167","odd","NW_S_COMP","BRANCHEL","1187","138981","137323","131288","33363","NA","NA","NA","NA","138979","137820","NA","136823","NA","136817","138979","1195","139231","NA","NA","137990","1187","1187","138381","136817","1187","137990","139231","morph21_Oliver/Morris","22","16200","29","yes","1280","16"
"300","76.6666666667","76.6666666667","556.4","556.4","black","no","xpyriment","legacy","legacy","0","202","NA","uniform","68415","1000","0.0146166776292","1","undefined","1","0","29","29","29","0","29","29","29","NA","29","29","0","29","NA","29","29","0","29","NA","29","NA","29","0","0","29","29","0","29","29","30","/","03/21/19 16:53:48","The main experiment item","yes","FIN__BA__M21__7%3A10%3A17.osexp","C:\Users\ERP Testing Room\Desktop\Joanna\morph21","no","mono","no","18","no","white","no","yes","1080","legacy","29","29","C:/Users/ERP Testing Room/Desktop/Joanna/morph21/subject-167.csv","xpyriment","Kafkaesque Koffka","3.2.5","0","/","NA","NA","NA","NA","space","/","492","NA","NA","NA","NA","32167","492","2","legacy","1024","2","48000","-16","BA_m21","167","odd","CW_L","KNOCKER","1187","143698","140482","142190","33363","NA","NA","NA","NA","142181","140979","NA","139982","NA","139971","142181","1195","143999","NA","NA","141190","1187","1187","141582","139971","1187","141190","143999","morph21_Oliver/Morris","23","16692","30","yes","1280","4"
"300","77.4193548387","77.4193548387","554.35483871","554.35483871","black","no","xpyriment","legacy","legacy","0","207","NA","uniform","73541","1000","0.0135978569777","1","undefined","1","0","30","30","30","0","30","30","30","NA","30","30","0","30","NA","30","30","0","30","NA","30","NA","30","0","0","30","30","0","30","30","31","/","03/21/19 16:53:48","The main experiment item","yes","FIN__BA__M21__7%3A10%3A17.osexp","C:\Users\ERP Testing Room\Desktop\Joanna\morph21","no","mono","no","18","no","white","no","yes","1080","legacy","30","30","C:/Users/ERP Testing Room/Desktop/Joanna/morph21/subject-167.csv","xpyriment","Kafkaesque Koffka","3.2.5","0","/","NA","NA","NA","NA","space","/","493","NA","NA","NA","NA","32167","493","2","legacy","1024","2","48000","-16","BA_m21","167","odd","FILL_W","IRON","1187","146948","145273","142190","33363","NA","NA","NA","NA","146946","145771","NA","144773","NA","144762","146946","1195","147248","NA","NA","145957","1187","1187","146348","144762","1187","145957","147248","morph21_Oliver/Morris","24","17185","31","yes","1280","33"
"300","78.125","78.125","563.34375","563.34375","black","no","xpyriment","legacy","legacy","0","201","NA","uniform","47517","1000","0.0210450996485","1","undefined","1","0","31","31","31","0","31","31","31","NA","31","31","0","31","NA","31","31","0","31","NA","31","NA","31","0","0","31","31","0","31","31","32","/","03/21/19 16:53:48","The main experiment item","yes","FIN__BA__M21__7%3A10%3A17.osexp","C:\Users\ERP Testing Room\Desktop\Joanna\morph21","no","mono","no","18","no","white","no","yes","1080","legacy","31","31","C:/Users/ERP Testing Room/Desktop/Joanna/morph21/subject-167.csv","xpyriment","Kafkaesque Koffka","3.2.5","0","/","NA","NA","NA","NA","space","/","842","NA","NA","NA","NA","32167","842","2","legacy","1024","2","48000","-16","BA_m21","167","odd","CW_S","INSISTENT","1187","150199","148532","142190","33363","NA","NA","NA","NA","150188","149029","NA","148024","NA","148018","150188","1195","150499","NA","NA","149199","1187","1187","149590","148018","1187","149199","150499","morph21_Oliver/Morris","25","18027","32","yes","1280","9"
"350","78.7878787879","78.7878787879","562.393939394","562.393939394","black","no","xpyriment","legacy","legacy","0","202","NA","uniform","71119","1000","0.0140609401145","1","undefined","1","0","32","32","32","0","32","32","32","NA","32","32","0","32","NA","32","32","0","32","NA","32","NA","32","0","0","32","32","0","32","32","33","/","03/21/19 16:53:48","The main experiment item","yes","FIN__BA__M21__7%3A10%3A17.osexp","C:\Users\ERP Testing Room\Desktop\Joanna\morph21","no","mono","no","18","no","white","no","yes","1080","legacy","32","32","C:/Users/ERP Testing Room/Desktop/Joanna/morph21/subject-167.csv","xpyriment","Kafkaesque Koffka","3.2.5","0","/","NA","NA","NA","NA","space","/","532","NA","NA","NA","NA","32167","532","2","legacy","1024","2","48000","-16","BA_m21","167","odd","CW_L","PAINTER","1187","154858","151690","153349","33363","NA","NA","NA","NA","153345","152187","NA","151190","NA","151181","153345","1195","155208","NA","NA","152349","1187","1187","152749","151181","1187","152349","155208","morph21_Oliver/Morris","26","18559","33","yes","1280","18"
"300","76.4705882353","76.4705882353","560.941176471","560.941176471","black","no","xpyriment","legacy","legacy","0","208","NA","uniform","69667","1000","0.0143539983062","0","undefined","0","0","33","33","33","0","33","33","33","NA","33","33","0","33","NA","33","33","0","33","NA","33","NA","33","0","0","33","33","0","33","33","34","z","03/21/19 16:53:48","The main experiment item","yes","FIN__BA__M21__7%3A10%3A17.osexp","C:\Users\ERP Testing Room\Desktop\Joanna\morph21","no","mono","no","18","no","white","no","yes","1080","legacy","33","33","C:/Users/ERP Testing Room/Desktop/Joanna/morph21/subject-167.csv","xpyriment","Kafkaesque Koffka","3.2.5","0","/","NA","NA","NA","NA","space","/","513","NA","NA","NA","NA","32167","513","2","legacy","1024","2","48000","-16","BA_m21","167","odd","FILL_NW","DASK","1187","158017","156358","153349","33363","NA","NA","NA","NA","153345","156855","NA","155858","NA","155847","158010","1195","158317","NA","NA","157017","1187","1187","157408","155847","1187","157016","158317","morph21_Oliver/Morris","26","19072","34","yes","1280","12"
"400","74.2857142857","74.2857142857","557.2","557.2","black","no","xpyriment","legacy","legacy","0","205","NA","uniform","69768","1000","0.0143332186676","0","undefined","0","0","34","34","34","0","34","34","34","NA","34","34","0","34","NA","34","34","0","34","NA","34","NA","34","0","0","34","34","0","34","34","35","z","03/21/19 16:53:48","The main experiment item","yes","FIN__BA__M21__7%3A10%3A17.osexp","C:\Users\ERP Testing Room\Desktop\Joanna\morph21","no","mono","no","18","no","white","no","yes","1080","legacy","34","34","C:/Users/ERP Testing Room/Desktop/Joanna/morph21/subject-167.csv","xpyriment","Kafkaesque Koffka","3.2.5","0","/","NA","NA","NA","NA","space","/","430","NA","NA","NA","NA","32167","430","2","legacy","1024","2","48000","-16","BA_m21","167","odd","NW_S_SIMP","AIDIC","1187","161300","159617","153349","33363","NA","NA","NA","NA","153345","160114","NA","159117","NA","159112","161290","1195","161700","NA","NA","160300","1187","1187","160692","159112","1187","160300","161700","morph21_Oliver/Morris","26","19502","35","yes","1280","4"
"300","72.2222222222","72.2222222222","554.277777778","554.277777778","black","no","xpyriment","legacy","legacy","0","205","NA","uniform","69280","1000","0.0144341801386","0","undefined","0","0","35","35","35","0","35","35","35","NA","35","35","0","35","NA","35","35","0","35","NA","35","NA","35","0","0","35","35","0","35","35","36","z","03/21/19 16:53:48","The main experiment item","yes","FIN__BA__M21__7%3A10%3A17.osexp","C:\Users\ERP Testing Room\Desktop\Joanna\morph21","no","mono","no","18","no","white","no","yes","1080","legacy","35","35","C:/Users/ERP Testing Room/Desktop/Joanna/morph21/subject-167.csv","xpyriment","Kafkaesque Koffka","3.2.5","0","/","NA","NA","NA","NA","space","/","452","NA","NA","NA","NA","32167","452","2","legacy","1024","2","48000","-16","BA_m21","167","odd","NW_S_SIMP","TILTARY","1187","166042","162842","164533","33363","NA","NA","NA","NA","153345","163339","NA","162342","NA","162338","164529","1195","166342","NA","NA","163542","1187","1187","163934","162338","1187","163542","166342","morph21_Oliver/Morris","26","19954","36","yes","1280","17"
"300","72.972972973","72.972972973","552.405405405","552.405405405","black","no","xpyriment","legacy","legacy","0","202","NA","uniform","68442","1000","0.0146109114287","1","undefined","1","0","36","36","36","0","36","36","36","NA","36","36","0","36","NA","36","36","0","36","NA","36","NA","36","0","0","36","36","0","36","36","37","/","03/21/19 16:53:48","The main experiment item","yes","FIN__BA__M21__7%3A10%3A17.osexp","C:\Users\ERP Testing Room\Desktop\Joanna\morph21","no","mono","no","18","no","white","no","yes","1080","legacy","36","36","C:/Users/ERP Testing Room/Desktop/Joanna/morph21/subject-167.csv","xpyriment","Kafkaesque Koffka","3.2.5","0","/","NA","NA","NA","NA","space","/","485","NA","NA","NA","NA","32167","485","2","legacy","1024","2","48000","-16","BA_m21","167","odd","CW_L","DOUBTFUL","1187","169300","167584","164533","33363","NA","NA","NA","NA","169291","168081","NA","167084","NA","167076","169291","1195","169600","NA","NA","168300","1187","1187","168692","167076","1187","168300","169600","morph21_Oliver/Morris","27","20439","37","yes","1280","21"
"250","73.6842105263","73.6842105263","549.526315789","549.526315789","black","no","xpyriment","legacy","legacy","0","207","NA","uniform","70429","1000","0.0141986965597","1","undefined","1","0","37","37","37","0","37","37","37","NA","37","37","0","37","NA","37","37","0","37","NA","37","NA","37","0","0","37","37","0","37","37","38","/","03/21/19 16:53:48","The main experiment item","yes","FIN__BA__M21__7%3A10%3A17.osexp","C:\Users\ERP Testing Room\Desktop\Joanna\morph21","no","mono","no","18","no","white","no","yes","1080","legacy","37","37","C:/Users/ERP Testing Room/Desktop/Joanna/morph21/subject-167.csv","xpyriment","Kafkaesque Koffka","3.2.5","0","/","NA","NA","NA","NA","space","/","443","NA","NA","NA","NA","32167","443","2","legacy","1024","2","48000","-16","BA_m21","167","odd","FILL_W","SMOKE","1187","172543","170834","164533","33363","NA","NA","NA","NA","172533","171331","NA","170325","NA","170315","172533","1195","172793","NA","NA","171543","1187","1187","171935","170315","1187","171543","172793","morph21_Oliver/Morris","28","20882","38","yes","1280","50"
"250","74.358974359","74.358974359","548.307692308","548.307692308","black","no","xpyriment","legacy","legacy","0","201","NA","uniform","62404","1000","0.0160246138068","1","undefined","1","0","38","38","38","0","38","38","38","NA","38","38","0","38","NA","38","38","0","38","NA","38","NA","38","0","0","38","38","0","38","38","39","/","03/21/19 16:53:48","The main experiment item","yes","FIN__BA__M21__7%3A10%3A17.osexp","C:\Users\ERP Testing Room\Desktop\Joanna\morph21","no","mono","no","18","no","white","no","yes","1080","legacy","38","38","C:/Users/ERP Testing Room/Desktop/Joanna/morph21/subject-167.csv","xpyriment","Kafkaesque Koffka","3.2.5","0","/","NA","NA","NA","NA","space","/","502","NA","NA","NA","NA","32167","502","2","legacy","1024","2","48000","-16","BA_m21","167","odd","CW_S","HUGELY","1187","177152","173943","175643","33363","NA","NA","NA","NA","175640","174440","NA","173443","NA","173438","175640","1195","177402","NA","NA","174652","1187","1187","175043","173438","1187","174652","177402","morph21_Oliver/Morris","29","21384","39","yes","1280","35"
"200","72.5","72.5","546.375","546.375","black","no","xpyriment","legacy","legacy","0","205","NA","uniform","68158","1000","0.0146717920127","0","undefined","0","0","39","39","39","0","39","39","39","NA","39","39","0","39","NA","39","39","0","39","NA","39","NA","39","0","0","39","39","0","39","39","40","z","03/21/19 16:53:48","The main experiment item","yes","FIN__BA__M21__7%3A10%3A17.osexp","C:\Users\ERP Testing Room\Desktop\Joanna\morph21","no","mono","no","18","no","white","no","yes","1080","legacy","39","39","C:/Users/ERP Testing Room/Desktop/Joanna/morph21/subject-167.csv","xpyriment","Kafkaesque Koffka","3.2.5","0","/","NA","NA","NA","NA","space","/","471","NA","NA","NA","NA","32167","471","2","legacy","1024","2","48000","-16","BA_m21","167","odd","NW_S_SIMP","THRILLANCE","1187","180219","178527","175643","33363","NA","NA","NA","NA","175640","179024","NA","178027","NA","178016","180210","1195","180419","NA","NA","179219","1187","1187","179610","178016","1187","179218","180419","morph21_Oliver/Morris","29","21855","40","yes","1280","22"
"400","70.7317073171","70.7317073171","550.292682927","550.292682927","black","no","xpyriment","legacy","legacy","0","204","NA","uniform","62312","1000","0.0160482732058","0","undefined","0","0","40","40","40","0","40","40","40","NA","40","40","0","40","NA","40","40","0","40","NA","40","NA","40","0","0","40","40","0","40","40","41","z","03/21/19 16:53:48","The main experiment item","yes","FIN__BA__M21__7%3A10%3A17.osexp","C:\Users\ERP Testing Room\Desktop\Joanna\morph21","no","mono","no","18","no","white","no","yes","1080","legacy","40","40","C:/Users/ERP Testing Room/Desktop/Joanna/morph21/subject-167.csv","xpyriment","Kafkaesque Koffka","3.2.5","0","/","NA","NA","NA","NA","space","/","707","NA","NA","NA","NA","32167","707","2","legacy","1024","2","48000","-16","BA_m21","167","odd","NW_L_COMP","ANGELITH","1187","183319","181635","175643","33363","NA","NA","NA","NA","175640","182132","NA","181135","NA","181129","183316","1195","183719","NA","NA","182327","1187","1187","182719","181129","1187","182327","183719","morph21_Oliver/Morris","29","22562","41","yes","1280","7"
"200","69.0476190476","69.0476190476","555.857142857","555.857142857","black","no","xpyriment","legacy","legacy","0","208","NA","uniform","56146","1000","0.0178107077975","0","undefined","0","0","41","41","41","0","41","41","41","NA","41","41","0","41","NA","41","41","0","41","NA","41","NA","41","0","0","41","41","0","41","41","42","z","03/21/19 16:53:48","The main experiment item","yes","FIN__BA__M21__7%3A10%3A17.osexp","C:\Users\ERP Testing Room\Desktop\Joanna\morph21","no","mono","no","18","no","white","no","yes","1080","legacy","41","41","C:/Users/ERP Testing Room/Desktop/Joanna/morph21/subject-167.csv","xpyriment","Kafkaesque Koffka","3.2.5","0","/","NA","NA","NA","NA","space","/","784","NA","NA","NA","NA","32167","784","2","legacy","1024","2","48000","-16","BA_m21","167","odd","FILL_NW","PUCTS","1187","188077","184910","186569","33363","NA","NA","NA","NA","175640","185408","NA","184410","NA","184398","186558","1195","188277","NA","NA","185569","1187","1187","185960","184398","1187","185569","188277","morph21_Oliver/Morris","29","23346","42","yes","1280","40"
"300","69.7674418605","69.7674418605","562.162790698","562.162790698","black","no","xpyriment","legacy","legacy","0","204","NA","uniform","53219","1000","0.0187902816663","1","undefined","1","0","42","42","42","0","42","42","42","NA","42","42","0","42","NA","42","42","0","42","NA","42","NA","42","0","0","42","42","0","42","42","43","z","03/21/19 16:53:48","The main experiment item","yes","FIN__BA__M21__7%3A10%3A17.osexp","C:\Users\ERP Testing Room\Desktop\Joanna\morph21","no","mono","no","18","no","white","no","yes","1080","legacy","42","42","C:/Users/ERP Testing Room/Desktop/Joanna/morph21/subject-167.csv","xpyriment","Kafkaesque Koffka","3.2.5","0","z","NA","NA","NA","NA","space","z","827","NA","NA","NA","NA","32167","827","2","legacy","1024","2","48000","-16","BA_m21","167","odd","NW_L_COMP","ILLILT","1187","191087","189403","186569","33363","NA","NA","NA","NA","191078","189900","NA","188903","NA","188893","191078","1195","191387","NA","NA","190087","1187","1187","190478","188893","1187","190087","191387","morph21_Oliver/Morris","30","24173","43","yes","1280","9"
"350","70.4545454545","70.4545454545","562.931818182","562.931818182","black","no","xpyriment","legacy","legacy","0","202","NA","uniform","54110","1000","0.0184808722972","1","undefined","1","0","43","43","43","0","43","43","43","NA","43","43","0","43","NA","43","43","0","43","NA","43","NA","43","0","0","43","43","0","43","43","44","/","03/21/19 16:53:48","The main experiment item","yes","FIN__BA__M21__7%3A10%3A17.osexp","C:\Users\ERP Testing Room\Desktop\Joanna\morph21","no","mono","no","18","no","white","no","yes","1080","legacy","43","43","C:/Users/ERP Testing Room/Desktop/Joanna/morph21/subject-167.csv","xpyriment","Kafkaesque Koffka","3.2.5","0","/","NA","NA","NA","NA","space","/","596","NA","NA","NA","NA","32167","596","2","legacy","1024","2","48000","-16","BA_m21","167","odd","CW_L","PARKING","1187","194262","192553","186569","33363","NA","NA","NA","NA","194255","193051","NA","192053","NA","192047","194255","1195","194612","NA","NA","193262","1187","1187","193653","192047","1187","193262","194612","morph21_Oliver/Morris","31","24769","44","yes","1280","25"
"350","71.1111111111","71.1111111111","567.511111111","567.511111111","black","no","xpyriment","legacy","legacy","0","201","NA","uniform","54577","1000","0.018322736684","1","undefined","1","0","44","44","44","0","44","44","44","NA","44","44","0","44","NA","44","44","0","44","NA","44","NA","44","0","0","44","44","0","44","44","45","/","03/21/19 16:53:48","The main experiment item","yes","FIN__BA__M21__7%3A10%3A17.osexp","C:\Users\ERP Testing Room\Desktop\Joanna\morph21","no","mono","no","18","no","white","no","yes","1080","legacy","44","44","C:/Users/ERP Testing Room/Desktop/Joanna/morph21/subject-167.csv","xpyriment","Kafkaesque Koffka","3.2.5","0","/","NA","NA","NA","NA","space","/","769","NA","NA","NA","NA","32167","769","2","legacy","1024","2","48000","-16","BA_m21","167","odd","CW_S","DENSELY","1187","199054","195870","197545","33363","NA","NA","NA","NA","197536","196367","NA","195370","NA","195360","197536","1195","199404","NA","NA","196545","1187","1187","196937","195360","1187","196545","199404","morph21_Oliver/Morris","32","25538","45","yes","1280","32"
"400","71.7391304348","71.7391304348","566.130434783","566.130434783","black","no","xpyriment","legacy","legacy","0","202","NA","uniform","63903","1000","0.0156487175876","1","undefined","1","0","45","45","45","0","45","45","45","NA","45","45","0","45","NA","45","45","0","45","NA","45","NA","45","0","0","45","45","0","45","45","46","/","03/21/19 16:53:48","The main experiment item","yes","FIN__BA__M21__7%3A10%3A17.osexp","C:\Users\ERP Testing Room\Desktop\Joanna\morph21","no","mono","no","18","no","white","no","yes","1080","legacy","45","45","C:/Users/ERP Testing Room/Desktop/Joanna/morph21/subject-167.csv","xpyriment","Kafkaesque Koffka","3.2.5","0","/","NA","NA","NA","NA","space","/","504","NA","NA","NA","NA","32167","504","2","legacy","1024","2","48000","-16","BA_m21","167","odd","CW_L","FAITHFUL","1187","202170","200495","197545","33363","NA","NA","NA","NA","202163","200993","NA","199995","NA","199988","202163","1195","202570","NA","NA","201170","1187","1187","201562","199988","1187","201170","202570","morph21_Oliver/Morris","33","26042","46","yes","1280","20"
"400","70.2127659574","70.2127659574","561.936170213","561.936170213","black","no","xpyriment","legacy","legacy","0","208","NA","uniform","66658","1000","0.0150019502535","0","undefined","0","0","46","46","46","0","46","46","46","NA","46","46","0","46","NA","46","46","0","46","NA","46","NA","46","0","0","46","46","0","46","46","47","z","03/21/19 16:53:48","The main experiment item","yes","FIN__BA__M21__7%3A10%3A17.osexp","C:\Users\ERP Testing Room\Desktop\Joanna\morph21","no","mono","no","18","no","white","no","yes","1080","legacy","46","46","C:/Users/ERP Testing Room/Desktop/Joanna/morph21/subject-167.csv","xpyriment","Kafkaesque Koffka","3.2.5","0","/","NA","NA","NA","NA","space","/","369","NA","NA","NA","NA","32167","369","2","legacy","1024","2","48000","-16","BA_m21","167","odd","FILL_NW","ULNS","1187","205512","203812","197545","33363","NA","NA","NA","NA","202163","204309","NA","203312","NA","203309","205503","1195","205912","NA","NA","204512","1187","1187","204904","203308","1187","204512","205912","morph21_Oliver/Morris","33","26411","47","yes","1280","45"
"350","68.75","68.75","558.395833333","558.395833333","black","no","xpyriment","legacy","legacy","0","208","NA","uniform","68541","1000","0.0145898075604","0","undefined","0","0","47","47","47","0","47","47","47","NA","47","47","0","47","NA","47","47","0","47","NA","47","NA","47","0","0","47","47","0","47","47","48","z","03/21/19 16:53:48","The main experiment item","yes","FIN__BA__M21__7%3A10%3A17.osexp","C:\Users\ERP Testing Room\Desktop\Joanna\morph21","no","mono","no","18","no","white","no","yes","1080","legacy","47","47","C:/Users/ERP Testing Room/Desktop/Joanna/morph21/subject-167.csv","xpyriment","Kafkaesque Koffka","3.2.5","0","/","NA","NA","NA","NA","space","/","392","NA","NA","NA","NA","32167","392","2","legacy","1024","2","48000","-16","BA_m21","167","odd","FILL_NW","DASP","1187","210347","207138","208838","33363","NA","NA","NA","NA","202163","207636","NA","206638","NA","206631","208830","1195","210697","NA","NA","207838","1187","1187","208230","206631","1187","207838","210697","morph21_Oliver/Morris","33","26803","48","yes","1280","13"
"300","69.387755102","69.387755102","563.897959184","563.897959184","black","no","xpyriment","legacy","legacy","0","204","NA","uniform","55895","1000","0.0178906878969","1","undefined","1","0","48","48","48","0","48","48","48","NA","48","48","0","48","NA","48","48","0","48","NA","48","NA","48","0","0","48","48","0","48","48","49","z","03/21/19 16:53:48","The main experiment item","yes","FIN__BA__M21__7%3A10%3A17.osexp","C:\Users\ERP Testing Room\Desktop\Joanna\morph21","no","mono","no","18","no","white","no","yes","1080","legacy","48","48","C:/Users/ERP Testing Room/Desktop/Joanna/morph21/subject-167.csv","xpyriment","Kafkaesque Koffka","3.2.5","0","z","NA","NA","NA","NA","space","z","828","NA","NA","NA","NA","32167","828","2","legacy","1024","2","48000","-16","BA_m21","167","odd","NW_L_COMP","EMPLOYNELS","1187","213622","211947","208838","33363","NA","NA","NA","NA","213612","212444","NA","211447","NA","211437","213612","1195","213922","NA","NA","212622","1187","1187","213014","211437","1187","212622","213922","morph21_Oliver/Morris","34","27631","49","yes","1280","21"
"200","70","70","560.86","560.86","black","no","xpyriment","legacy","legacy","0","202","NA","uniform","63265","1000","0.0158065280961","1","undefined","1","0","49","49","49","0","49","49","49","NA","49","49","0","49","NA","49","49","0","49","NA","49","NA","49","0","0","49","49","0","49","49","50","/","03/21/19 16:53:48","The main experiment item","yes","FIN__BA__M21__7%3A10%3A17.osexp","C:\Users\ERP Testing Room\Desktop\Joanna\morph21","no","mono","no","18","no","white","no","yes","1080","legacy","49","49","C:/Users/ERP Testing Room/Desktop/Joanna/morph21/subject-167.csv","xpyriment","Kafkaesque Koffka","3.2.5","0","/","NA","NA","NA","NA","space","/","412","NA","NA","NA","NA","32167","412","2","legacy","1024","2","48000","-16","BA_m21","167","odd","CW_L","BONELESS","1187","216822","215147","208838","33363","NA","NA","NA","NA","216816","215644","NA","214647","NA","214640","216816","1195","217022","NA","NA","215822","1187","1187","216214","214640","1187","215822","217022","morph21_Oliver/Morris","35","28043","50","yes","1280","34"
"350","70.5882352941","70.5882352941","560.352941176","560.352941176","black","no","xpyriment","legacy","legacy","0","202","NA","uniform","57420","1000","0.0174155346569","1","undefined","1","0","50","50","50","0","50","50","50","NA","50","50","0","50","NA","50","50","0","50","NA","50","NA","50","0","0","50","50","0","50","50","51","/","03/21/19 16:53:48","The main experiment item","yes","FIN__BA__M21__7%3A10%3A17.osexp","C:\Users\ERP Testing Room\Desktop\Joanna\morph21","no","mono","no","18","no","white","no","yes","1080","legacy","50","50","C:/Users/ERP Testing Room/Desktop/Joanna/morph21/subject-167.csv","xpyriment","Kafkaesque Koffka","3.2.5","0","/","NA","NA","NA","NA","space","/","535","NA","NA","NA","NA","32167","535","2","legacy","1024","2","48000","-16","BA_m21","167","odd","CW_L","PUNCHER","1187","221447","218264","219939","33363","NA","NA","NA","NA","219931","218761","NA","217764","NA","217755","219931","1195","221797","NA","NA","218939","1187","1187","219331","217755","1187","218939","221797","morph21_Oliver/Morris","36","28578","51","yes","1280","1"
"200","69.2307692308","69.2307692308","564.769230769","564.769230769","black","no","xpyriment","legacy","legacy","0","206","NA","uniform","50052","1000","0.0199792216095","0","undefined","0","0","51","51","51","0","51","51","51","NA","51","51","0","51","NA","51","51","0","51","NA","51","NA","51","0","0","51","51","0","51","51","52","z","03/21/19 16:53:48","The main experiment item","yes","FIN__BA__M21__7%3A10%3A17.osexp","C:\Users\ERP Testing Room\Desktop\Joanna\morph21","no","mono","no","18","no","white","no","yes","1080","legacy","51","51","C:/Users/ERP Testing Room/Desktop/Joanna/morph21/subject-167.csv","xpyriment","Kafkaesque Koffka","3.2.5","0","/","NA","NA","NA","NA","space","/","790","NA","NA","NA","NA","32167","790","2","legacy","1024","2","48000","-16","BA_m21","167","odd","NW_L_SIMP","TOWERLY","1187","224723","222989","219939","33363","NA","NA","NA","NA","219931","223486","NA","222489","NA","222479","224720","1195","224923","NA","NA","223732","1187","1187","224123","222479","1187","223732","224923","morph21_Oliver/Morris","36","29368","52","yes","1280","15"
"200","69.8113207547","69.8113207547","566.830188679","566.830188679","black","no","xpyriment","legacy","legacy","0","208","NA","uniform","53919","1000","0.0185463380256","1","undefined","1","0","52","52","52","0","52","52","52","NA","52","52","0","52","NA","52","52","0","52","NA","52","NA","52","0","0","52","52","0","52","52","53","z","03/21/19 16:53:48","The main experiment item","yes","FIN__BA__M21__7%3A10%3A17.osexp","C:\Users\ERP Testing Room\Desktop\Joanna\morph21","no","mono","no","18","no","white","no","yes","1080","legacy","52","52","C:/Users/ERP Testing Room/Desktop/Joanna/morph21/subject-167.csv","xpyriment","Kafkaesque Koffka","3.2.5","0","z","NA","NA","NA","NA","space","z","674","NA","NA","NA","NA","32167","674","2","legacy","1024","2","48000","-16","BA_m21","167","odd","FILL_NW","GAIRS","1187","227840","226157","219939","33363","NA","NA","NA","NA","227831","226654","NA","225657","NA","225650","227831","1195","228040","NA","NA","226840","1187","1187","227232","225650","1187","226840","228040","morph21_Oliver/Morris","37","30042","53","yes","1280","23"
"200","68.5185185185","68.5185185185","574.666666667","574.666666667","black","no","xpyriment","legacy","legacy","0","208","NA","uniform","50807","1000","0.0196823272384","0","undefined","0","0","53","53","53","0","53","53","53","NA","53","53","0","53","NA","53","53","0","53","NA","53","NA","53","0","0","53","53","0","53","53","54","z","03/21/19 16:53:48","The main experiment item","yes","FIN__BA__M21__7%3A10%3A17.osexp","C:\Users\ERP Testing Room\Desktop\Joanna\morph21","no","mono","no","18","no","white","no","yes","1080","legacy","53","53","C:/Users/ERP Testing Room/Desktop/Joanna/morph21/subject-167.csv","xpyriment","Kafkaesque Koffka","3.2.5","0","None","NA","NA","NA","NA","space","None","990","NA","NA","NA","NA","32167","990","2","legacy","1024","2","48000","-16","BA_m21","167","odd","FILL_NW","HOITS","1187","232465","229249","230957","33363","NA","NA","NA","NA","227831","229746","NA","228749","NA","228740","230947","1195","232666","NA","NA","229957","1187","1187","230349","228740","1187","229957","232666","morph21_Oliver/Morris","37","31032","54","yes","1280","30"
"250","69.0909090909","69.0909090909","578.527272727","578.527272727","black","no","xpyriment","legacy","legacy","0","201","NA","uniform","56340","1000","0.0177493787717","1","undefined","1","0","54","54","54","0","54","54","54","NA","54","54","0","54","NA","54","54","0","54","NA","54","NA","54","0","0","54","54","0","54","54","55","/","03/21/19 16:53:48","The main experiment item","yes","FIN__BA__M21__7%3A10%3A17.osexp","C:\Users\ERP Testing Room\Desktop\Joanna\morph21","no","mono","no","18","no","white","no","yes","1080","legacy","54","54","C:/Users/ERP Testing Room/Desktop/Joanna/morph21/subject-167.csv","xpyriment","Kafkaesque Koffka","3.2.5","0","/","NA","NA","NA","NA","space","/","787","NA","NA","NA","NA","32167","787","2","legacy","1024","2","48000","-16","BA_m21","167","odd","CW_S","HARMLESS","1187","235590","233907","230957","33363","NA","NA","NA","NA","235588","234404","NA","233407","NA","233398","235588","1195","235841","NA","NA","234599","1187","1187","234991","233398","1187","234599","235841","morph21_Oliver/Morris","38","31819","55","yes","1280","29"
"400","69.6428571429","69.6428571429","581.107142857","581.107142857","black","no","xpyriment","legacy","legacy","0","204","NA","uniform","51397","1000","0.0194563885052","1","undefined","1","0","55","55","55","0","55","55","55","NA","55","55","0","55","NA","55","55","0","55","NA","55","NA","55","0","0","55","55","0","55","55","56","z","03/21/19 16:53:48","The main experiment item","yes","FIN__BA__M21__7%3A10%3A17.osexp","C:\Users\ERP Testing Room\Desktop\Joanna\morph21","no","mono","no","18","no","white","no","yes","1080","legacy","55","55","C:/Users/ERP Testing Room/Desktop/Joanna/morph21/subject-167.csv","xpyriment","Kafkaesque Koffka","3.2.5","0","z","NA","NA","NA","NA","space","z","723","NA","NA","NA","NA","32167","723","2","legacy","1024","2","48000","-16","BA_m21","167","odd","NW_L_COMP","RIPENGE","1187","238782","237082","230957","33363","NA","NA","NA","NA","238777","237579","NA","236582","NA","236576","238777","1195","239182","NA","NA","237782","1187","1187","238182","236576","1187","237782","239182","morph21_Oliver/Morris","39","32542","56","yes","1280","4"
"350","68.4210526316","68.4210526316","588.280701754","588.280701754","black","no","xpyriment","legacy","legacy","0","203","NA","uniform","51593","1000","0.0193824743667","0","undefined","0","0","56","56","56","0","56","56","56","NA","56","56","0","56","NA","56","56","0","56","NA","56","NA","56","0","0","56","56","0","56","56","57","z","03/21/19 16:53:48","The main experiment item","yes","FIN__BA__M21__7%3A10%3A17.osexp","C:\Users\ERP Testing Room\Desktop\Joanna\morph21","no","mono","no","18","no","white","no","yes","1080","legacy","56","56","C:/Users/ERP Testing Room/Desktop/Joanna/morph21/subject-167.csv","xpyriment","Kafkaesque Koffka","3.2.5","0","None","NA","NA","NA","NA","space","None","990","NA","NA","NA","NA","32167","990","2","legacy","1024","2","48000","-16","BA_m21","167","odd","NW_S_COMP","HEIGHTENGE","1187","243534","240349","242025","33363","NA","NA","NA","NA","238777","240846","NA","239849","NA","239841","242022","1195","243884","NA","NA","241032","1187","1187","241425","239841","1187","241032","243884","morph21_Oliver/Morris","39","33532","57","yes","1280","18"
"250","68.9655172414","68.9655172414","585.775862069","585.775862069","black","no","xpyriment","legacy","legacy","0","207","NA","uniform","69630","1000","0.014361625736","1","undefined","1","0","57","57","57","0","57","57","57","NA","57","57","0","57","NA","57","57","0","57","NA","57","NA","57","0","0","57","57","0","57","57","58","/","03/21/19 16:53:48","The main experiment item","yes","FIN__BA__M21__7%3A10%3A17.osexp","C:\Users\ERP Testing Room\Desktop\Joanna\morph21","no","mono","no","18","no","white","no","yes","1080","legacy","57","57","C:/Users/ERP Testing Room/Desktop/Joanna/morph21/subject-167.csv","xpyriment","Kafkaesque Koffka","3.2.5","0","/","NA","NA","NA","NA","space","/","443","NA","NA","NA","NA","32167","443","2","legacy","1024","2","48000","-16","BA_m21","167","odd","FILL_W","SUIT","1187","246750","245059","242025","33363","NA","NA","NA","NA","246748","245556","NA","244559","NA","244549","246748","1195","247000","NA","NA","245759","1187","1187","246150","244549","1187","245759","247000","morph21_Oliver/Morris","40","33975","58","yes","1280","49"
"200","69.4915254237","69.4915254237","586.728813559","586.728813559","black","no","xpyriment","legacy","legacy","0","208","NA","uniform","64684","1000","0.0154597736689","1","undefined","1","0","58","58","58","0","58","58","58","NA","58","58","0","58","NA","58","58","0","58","NA","58","NA","58","0","0","58","58","0","58","58","59","z","03/21/19 16:53:48","The main experiment item","yes","FIN__BA__M21__7%3A10%3A17.osexp","C:\Users\ERP Testing Room\Desktop\Joanna\morph21","no","mono","no","18","no","white","no","yes","1080","legacy","58","58","C:/Users/ERP Testing Room/Desktop/Joanna/morph21/subject-167.csv","xpyriment","Kafkaesque Koffka","3.2.5","0","z","NA","NA","NA","NA","space","z","642","NA","NA","NA","NA","32167","642","2","legacy","1024","2","48000","-16","BA_m21","167","odd","FILL_NW","BROUPS","1187","249992","248292","242025","33363","NA","NA","NA","NA","249983","248789","NA","247792","NA","247785","249983","1195","250192","NA","NA","248992","1187","1187","249384","247785","1187","248992","250192","morph21_Oliver/Morris","41","34617","59","yes","1280","4"
"350","70","70","587.9","587.9","black","no","xpyriment","legacy","legacy","0","208","NA","uniform","62732","1000","0.0159408276478","1","undefined","1","0","59","59","59","0","59","59","59","NA","59","59","0","59","NA","59","59","0","59","NA","59","NA","59","0","0","59","59","0","59","59","60","z","03/21/19 16:53:48","The main experiment item","yes","FIN__BA__M21__7%3A10%3A17.osexp","C:\Users\ERP Testing Room\Desktop\Joanna\morph21","no","mono","no","18","no","white","no","yes","1080","legacy","59","59","C:/Users/ERP Testing Room/Desktop/Joanna/morph21/subject-167.csv","xpyriment","Kafkaesque Koffka","3.2.5","0","z","NA","NA","NA","NA","space","z","657","NA","NA","NA","NA","32167","657","2","legacy","1024","2","48000","-16","BA_m21","167","odd","FILL_NW","DELP","1187","254526","251292","253017","33363","NA","NA","NA","NA","253007","251789","NA","250792","NA","250786","253007","1195","254876","NA","NA","252017","1187","1187","252409","250786","1187","252017","254876","morph21_Oliver/Morris","42","35274","60","yes","1280","14"
"300","70.4918032787","70.4918032787","586.983606557","586.983606557","black","no","xpyriment","legacy","legacy","0","208","NA","uniform","65033","1000","0.0153768086971","1","undefined","1","0","60","60","60","0","60","60","60","NA","60","60","0","60","NA","60","60","0","60","NA","60","NA","60","0","0","60","60","0","60","60","61","z","03/21/19 16:53:48","The main experiment item","yes","FIN__BA__M21__7%3A10%3A17.osexp","C:\Users\ERP Testing Room\Desktop\Joanna\morph21","no","mono","no","18","no","white","no","yes","1080","legacy","60","60","C:/Users/ERP Testing Room/Desktop/Joanna/morph21/subject-167.csv","xpyriment","Kafkaesque Koffka","3.2.5","0","z","NA","NA","NA","NA","space","z","532","NA","NA","NA","NA","32167","532","2","legacy","1024","2","48000","-16","BA_m21","167","odd","FILL_NW","HEEM","1187","257692","256034","253017","33363","NA","NA","NA","NA","257690","256531","NA","255534","NA","255525","257690","1195","257992","NA","NA","256701","1187","1187","257092","255525","1187","256701","257992","morph21_Oliver/Morris","43","35806","61","yes","1280","27"
"350","70.9677419355","70.9677419355","593.225806452","593.225806452","black","no","xpyriment","legacy","legacy","0","203","NA","uniform","49343","1000","0.0202662991711","1","undefined","1","0","61","61","61","0","61","61","61","NA","61","61","0","61","NA","61","61","0","61","NA","61","NA","61","0","0","61","61","0","61","61","62","z","03/21/19 16:53:48","The main experiment item","yes","FIN__BA__M21__7%3A10%3A17.osexp","C:\Users\ERP Testing Room\Desktop\Joanna\morph21","no","mono","no","18","no","white","no","yes","1080","legacy","61","61","C:/Users/ERP Testing Room/Desktop/Joanna/morph21/subject-167.csv","xpyriment","Kafkaesque Koffka","3.2.5","0","z","NA","NA","NA","NA","space","z","974","NA","NA","NA","NA","32167","974","2","legacy","1024","2","48000","-16","BA_m21","167","odd","NW_S_COMP","FIENDILM","1187","260844","259152","253017","33363","NA","NA","NA","NA","260835","259649","NA","258651","NA","258644","260835","1195","261194","NA","NA","259844","1187","1187","260235","258644","1187","259844","261194","morph21_Oliver/Morris","44","36780","62","yes","1280","24"
"250","71.4285714286","71.4285714286","591.317460317","591.317460317","black","no","xpyriment","legacy","legacy","0","202","NA","uniform","62138","1000","0.0160932118832","1","undefined","1","0","62","62","62","0","62","62","62","NA","62","62","0","62","NA","62","62","0","62","NA","62","NA","62","0","0","62","62","0","62","62","63","/","03/21/19 16:53:48","The main experiment item","yes","FIN__BA__M21__7%3A10%3A17.osexp","C:\Users\ERP Testing Room\Desktop\Joanna\morph21","no","mono","no","18","no","white","no","yes","1080","legacy","62","62","C:/Users/ERP Testing Room/Desktop/Joanna/morph21/subject-167.csv","xpyriment","Kafkaesque Koffka","3.2.5","0","/","NA","NA","NA","NA","space","/","473","NA","NA","NA","NA","32167","473","2","legacy","1024","2","48000","-16","BA_m21","167","odd","CW_L","PUSHER","1187","265677","262494","264169","33363","NA","NA","NA","NA","264163","262991","NA","261994","NA","261987","264163","1195","265927","NA","NA","263169","1187","1187","263560","261987","1187","263169","265927","morph21_Oliver/Morris","45","37253","63","yes","1280","13"
"200","71.875","71.875","592.984375","592.984375","black","no","xpyriment","legacy","legacy","0","208","NA","uniform","55631","1000","0.0179755891499","1","undefined","1","0","63","63","63","0","63","63","63","NA","63","63","0","63","NA","63","63","0","63","NA","63","NA","63","0","0","63","63","0","63","63","64","z","03/21/19 16:53:48","The main experiment item","yes","FIN__BA__M21__7%3A10%3A17.osexp","C:\Users\ERP Testing Room\Desktop\Joanna\morph21","no","mono","no","18","no","white","no","yes","1080","legacy","63","63","C:/Users/ERP Testing Room/Desktop/Joanna/morph21/subject-167.csv","xpyriment","Kafkaesque Koffka","3.2.5","0","z","NA","NA","NA","NA","space","z","698","NA","NA","NA","NA","32167","698","2","legacy","1024","2","48000","-16","BA_m21","167","odd","FILL_NW","DARM","1187","268752","267069","264169","33363","NA","NA","NA","NA","268747","267566","NA","266560","NA","266554","268747","1195","268952","NA","NA","267752","1187","1187","268152","266554","1187","267752","268952","morph21_Oliver/Morris","46","37951","64","yes","1280","11"
"250","70.7692307692","70.7692307692","595.261538462","595.261538462","black","no","xpyriment","legacy","legacy","0","206","NA","uniform","55278","1000","0.0180903795362","0","undefined","0","0","64","64","64","0","64","64","64","NA","64","64","0","64","NA","64","64","0","64","NA","64","NA","64","0","0","64","64","0","64","64","65","z","03/21/19 16:53:48","The main experiment item","yes","FIN__BA__M21__7%3A10%3A17.osexp","C:\Users\ERP Testing Room\Desktop\Joanna\morph21","no","mono","no","18","no","white","no","yes","1080","legacy","64","64","C:/Users/ERP Testing Room/Desktop/Joanna/morph21/subject-167.csv","xpyriment","Kafkaesque Koffka","3.2.5","0","/","NA","NA","NA","NA","space","/","741","NA","NA","NA","NA","32167","741","2","legacy","1024","2","48000","-16","BA_m21","167","odd","NW_L_SIMP"," DRESSORY","1187","271877","270144","264169","33363","NA","NA","NA","NA","268747","270641","NA","269644","NA","269635","271869","1195","272127","NA","NA","270877","1187","1187","271269","269635","1187","270877","272127","morph21_Oliver/Morris","46","38692","65","yes","1280","21"
"200","71.2121212121","71.2121212121","598.03030303","598.03030303","black","no","xpyriment","legacy","legacy","0","207","NA","uniform","55527","1000","0.018009256758","1","undefined","1","0","65","65","65","0","65","65","65","NA","65","65","0","65","NA","65","65","0","65","NA","65","NA","65","0","0","65","65","0","65","65","66","/","03/21/19 16:53:48","The main experiment item","yes","FIN__BA__M21__7%3A10%3A17.osexp","C:\Users\ERP Testing Room\Desktop\Joanna\morph21","no","mono","no","18","no","white","no","yes","1080","legacy","65","65","C:/Users/ERP Testing Room/Desktop/Joanna/morph21/subject-167.csv","xpyriment","Kafkaesque Koffka","3.2.5","0","/","NA","NA","NA","NA","space","/","778","NA","NA","NA","NA","32167","778","2","legacy","1024","2","48000","-16","BA_m21","167","odd","FILL_W","FLESH","1187","276420","273236","274911","33363","NA","NA","NA","NA","274908","273733","NA","272727","NA","272720","274908","1195","276621","NA","NA","273919","1187","1187","274311","272720","1187","273919","276621","morph21_Oliver/Morris","47","39470","66","yes","1280","32"
"200","71.6417910448","71.6417910448","596.776119403","596.776119403","black","no","xpyriment","legacy","legacy","0","201","NA","uniform","68560","1000","0.014585764294","1","undefined","1","0","66","66","66","0","66","66","66","NA","66","66","0","66","NA","66","66","0","66","NA","66","NA","66","0","0","66","66","0","66","66","67","/","03/21/19 16:53:48","The main experiment item","yes","FIN__BA__M21__7%3A10%3A17.osexp","C:\Users\ERP Testing Room\Desktop\Joanna\morph21","no","mono","no","18","no","white","no","yes","1080","legacy","66","66","C:/Users/ERP Testing Room/Desktop/Joanna/morph21/subject-167.csv","xpyriment","Kafkaesque Koffka","3.2.5","0","/","NA","NA","NA","NA","space","/","514","NA","NA","NA","NA","32167","514","2","legacy","1024","2","48000","-16","BA_m21","167","odd","CW_S","LISTENER","1187","279504","277820","274911","33363","NA","NA","NA","NA","279498","278318","NA","277320","NA","277309","279498","1195","279704","NA","NA","278504","1187","1187","278895","277309","1187","278504","279704","morph21_Oliver/Morris","48","39984","67","yes","1280","18"
"250","70.5882352941","70.5882352941","602.573529412","602.573529412","black","no","xpyriment","legacy","legacy","0","206","NA","uniform","50150","1000","0.0199401794616","0","undefined","0","0","67","67","67","0","67","67","67","NA","67","67","0","67","NA","67","67","0","67","NA","67","NA","67","0","0","67","67","0","67","67","68","z","03/21/19 16:53:48","The main experiment item","yes","FIN__BA__M21__7%3A10%3A17.osexp","C:\Users\ERP Testing Room\Desktop\Joanna\morph21","no","mono","no","18","no","white","no","yes","1080","legacy","67","67","C:/Users/ERP Testing Room/Desktop/Joanna/morph21/subject-167.csv","xpyriment","Kafkaesque Koffka","3.2.5","0","None","NA","NA","NA","NA","space","None","991","NA","NA","NA","NA","32167","991","2","legacy","1024","2","48000","-16","BA_m21","167","odd","NW_L_SIMP","BEARIST","1187","282537","280862","274911","33363","NA","NA","NA","NA","279498","281359","NA","280362","NA","280352","282529","1195","282787","NA","NA","281537","1187","1187","281929","280352","1187","281537","282787","morph21_Oliver/Morris","48","40975","68","yes","1280","25"
"300","71.0144927536","71.0144927536","601.434782609","601.434782609","black","no","xpyriment","legacy","legacy","0","207","NA","uniform","64436","1000","0.0155192749395","1","undefined","1","0","68","68","68","0","68","68","68","NA","68","68","0","68","NA","68","68","0","68","NA","68","NA","68","0","0","68","68","0","68","68","69","/","03/21/19 16:53:48","The main experiment item","yes","FIN__BA__M21__7%3A10%3A17.osexp","C:\Users\ERP Testing Room\Desktop\Joanna\morph21","no","mono","no","18","no","white","no","yes","1080","legacy","68","68","C:/Users/ERP Testing Room/Desktop/Joanna/morph21/subject-167.csv","xpyriment","Kafkaesque Koffka","3.2.5","0","/","NA","NA","NA","NA","space","/","524","NA","NA","NA","NA","32167","524","2","legacy","1024","2","48000","-16","BA_m21","167","odd","FILL_W","MOURN","1187","287154","283979","285646","33363","NA","NA","NA","NA","285642","284476","NA","283479","NA","283473","285642","1195","287454","NA","NA","284646","1187","1187","285046","283473","1187","284646","287454","morph21_Oliver/Morris","49","41499","69","yes","1280","26"
"250","71.4285714286","71.4285714286","604.585714286","604.585714286","black","no","xpyriment","legacy","legacy","0","208","NA","uniform","48217","1000","0.0207395731796","1","undefined","1","0","69","69","69","0","69","69","69","NA","69","69","0","69","NA","69","69","0","69","NA","69","NA","69","0","0","69","69","0","69","69","70","z","03/21/19 16:53:48","The main experiment item","yes","FIN__BA__M21__7%3A10%3A17.osexp","C:\Users\ERP Testing Room\Desktop\Joanna\morph21","no","mono","no","18","no","white","no","yes","1080","legacy","69","69","C:/Users/ERP Testing Room/Desktop/Joanna/morph21/subject-167.csv","xpyriment","Kafkaesque Koffka","3.2.5","0","z","NA","NA","NA","NA","space","z","822","NA","NA","NA","NA","32167","822","2","legacy","1024","2","48000","-16","BA_m21","167","odd","FILL_NW","DOWED","1187","290388","288671","285646","33363","NA","NA","NA","NA","290381","289168","NA","288171","NA","288161","290381","1195","290638","NA","NA","289388","1187","1187","289779","288161","1187","289388","290638","morph21_Oliver/Morris","50","42321","70","yes","1280","16"
"400","71.8309859155","71.8309859155","605.915492958","605.915492958","black","no","xpyriment","legacy","legacy","0","203","NA","uniform","63161","1000","0.0158325548994","1","undefined","1","0","70","70","70","0","70","70","70","NA","70","70","0","70","NA","70","70","0","70","NA","70","NA","70","0","0","70","70","0","70","70","71","z","03/21/19 16:53:48","The main experiment item","yes","FIN__BA__M21__7%3A10%3A17.osexp","C:\Users\ERP Testing Room\Desktop\Joanna\morph21","no","mono","no","18","no","white","no","yes","1080","legacy","70","70","C:/Users/ERP Testing Room/Desktop/Joanna/morph21/subject-167.csv","xpyriment","Kafkaesque Koffka","3.2.5","0","z","NA","NA","NA","NA","space","z","699","NA","NA","NA","NA","32167","699","2","legacy","1024","2","48000","-16","BA_m21","167","odd","NW_S_COMP","ARIDILM","1187","293646","291954","285646","33363","NA","NA","NA","NA","293641","292451","NA","291454","NA","291444","293641","1195","294046","NA","NA","292646","1187","1187","293046","291444","1187","292646","294046","morph21_Oliver/Morris","51","43020","71","yes","1280","9"
"350","72.2222222222","72.2222222222","606.416666667","606.416666667","black","no","xpyriment","legacy","legacy","0","206","NA","uniform","65343","1000","0.0153038581026","1","undefined","1","0","71","71","71","0","71","71","71","NA","71","71","0","71","NA","71","71","0","71","NA","71","NA","71","0","0","71","71","0","71","71","72","z","03/21/19 16:53:48","The main experiment item","yes","FIN__BA__M21__7%3A10%3A17.osexp","C:\Users\ERP Testing Room\Desktop\Joanna\morph21","no","mono","no","18","no","white","no","yes","1080","legacy","71","71","C:/Users/ERP Testing Room/Desktop/Joanna/morph21/subject-167.csv","xpyriment","Kafkaesque Koffka","3.2.5","0","z","NA","NA","NA","NA","space","z","642","NA","NA","NA","NA","32167","642","2","legacy","1024","2","48000","-16","BA_m21","167","odd","NW_L_SIMP","WIGISH","1187","298381","295172","296872","33363","NA","NA","NA","NA","296868","295669","NA","294672","NA","294667","296868","1195","298731","NA","NA","295872","1187","1187","296272","294667","1187","295872","298731","morph21_Oliver/Morris","52","43662","72","yes","1280","9"
"400","72.602739726","72.602739726","605.01369863","605.01369863","black","no","xpyriment","legacy","legacy","0","202","NA","uniform","64431","1000","0.0155204792724","1","undefined","1","0","72","72","72","0","72","72","72","NA","72","72","0","72","NA","72","72","0","72","NA","72","NA","72","0","0","72","72","0","72","72","73","/","03/21/19 16:53:48","The main experiment item","yes","FIN__BA__M21__7%3A10%3A17.osexp","C:\Users\ERP Testing Room\Desktop\Joanna\morph21","no","mono","no","18","no","white","no","yes","1080","legacy","72","72","C:/Users/ERP Testing Room/Desktop/Joanna/morph21/subject-167.csv","xpyriment","Kafkaesque Koffka","3.2.5","0","/","NA","NA","NA","NA","space","/","504","NA","NA","NA","NA","32167","504","2","legacy","1024","2","48000","-16","BA_m21","167","odd","CW_L","BLINDNESS","1187","301506","299839","296872","33363","NA","NA","NA","NA","301499","300336","NA","299339","NA","299332","301499","1195","301906","NA","NA","300506","1187","1187","300897","299332","1187","300506","301906","morph21_Oliver/Morris","53","44166","73","yes","1280","40"
"200","72.972972973","72.972972973","606.121621622","606.121621622","black","no","xpyriment","legacy","legacy","0","208","NA","uniform","54130","1000","0.0184740439682","1","undefined","1","0","73","73","73","0","73","73","73","NA","73","73","0","73","NA","73","73","0","73","NA","73","NA","73","0","0","73","73","0","73","73","74","z","03/21/19 16:53:48","The main experiment item","yes","FIN__BA__M21__7%3A10%3A17.osexp","C:\Users\ERP Testing Room\Desktop\Joanna\morph21","no","mono","no","18","no","white","no","yes","1080","legacy","73","73","C:/Users/ERP Testing Room/Desktop/Joanna/morph21/subject-167.csv","xpyriment","Kafkaesque Koffka","3.2.5","0","z","NA","NA","NA","NA","space","z","687","NA","NA","NA","NA","32167","687","2","legacy","1024","2","48000","-16","BA_m21","167","odd","FILL_NW","HESK","1187","304723","303031","296872","33363","NA","NA","NA","NA","304714","303528","NA","302531","NA","302525","304714","1195","304923","NA","NA","303723","1187","1187","304114","302525","1187","303723","304923","morph21_Oliver/Morris","54","44853","74","yes","1280","29"
"250","72","72","604.533333333","604.533333333","black","no","xpyriment","legacy","legacy","0","201","NA","uniform","67112","1000","0.0149004648945","undefined","undefined","0","0","74","74","74","0","74","74","74","NA","74","74","0","74","NA","74","74","0","74","NA","74","NA","74","0","0","74","74","0","74","74","75","/","03/21/19 16:53:48","The main experiment item","yes","FIN__BA__M21__7%3A10%3A17.osexp","C:\Users\ERP Testing Room\Desktop\Joanna\morph21","no","mono","no","18","no","white","no","yes","1080","legacy","74","74","C:/Users/ERP Testing Room/Desktop/Joanna/morph21/subject-167.csv","xpyriment","Kafkaesque Koffka","3.2.5","0","space","space","NA","NA","NA","space","z","7945","7945","NA","NA","NA","32167","487","2","legacy","1024","2","48000","-16","BA_m21","167","odd","CW_S","GRIMLY","1187","309231","306039","307723","33363","309489","NA","NA","NA","304714","306536","NA","305539","NA","305529","307714","1195","317435","NA","NA","306723","1187","1187","307114","305529","1187","306723","309481","morph21_Oliver/Morris","54","45340","75","yes","1280","31"
"350","72.3684210526","72.3684210526","608.815789474","608.815789474","black","no","xpyriment","legacy","legacy","0","203","NA","uniform","55157","1000","0.0181300650869","1","undefined","1","0","75","75","75","0","75","75","75","NA","75","75","0","75","NA","75","75","0","75","NA","75","NA","75","0","0","75","75","0","75","75","76","z","03/21/19 16:53:48","The main experiment item","yes","FIN__BA__M21__7%3A10%3A17.osexp","C:\Users\ERP Testing Room\Desktop\Joanna\morph21","no","mono","no","18","no","white","no","yes","1080","legacy","75","75","C:/Users/ERP Testing Room/Desktop/Joanna/morph21/subject-167.csv","xpyriment","Kafkaesque Koffka","3.2.5","0","z","space","NA","NA","NA","space","z","930","7945","NA","NA","NA","32167","930","2","legacy","1024","2","48000","-16","BA_m21","167","odd","NW_S_COMP","HUMIDOES","1187","320224","318532","307723","33363","309489","NA","NA","NA","320218","319030","NA","318032","NA","318028","320218","1195","320574","NA","NA","319224","1187","1187","319616","318028","1187","319224","320574","morph21_Oliver/Morris","55","46270","76","yes","1280","25"
"350","71.4285714286","71.4285714286","606.636363636","606.636363636","black","no","xpyriment","legacy","legacy","0","202","NA","uniform","75172","1000","0.0133028255201","0","undefined","0","0","76","76","76","0","76","76","76","NA","76","76","0","76","NA","76","76","0","76","NA","76","NA","76","0","0","76","76","0","76","76","77","/","03/21/19 16:53:48","The main experiment item","yes","FIN__BA__M21__7%3A10%3A17.osexp","C:\Users\ERP Testing Room\Desktop\Joanna\morph21","no","mono","no","18","no","white","no","yes","1080","legacy","76","76","C:/Users/ERP Testing Room/Desktop/Joanna/morph21/subject-167.csv","xpyriment","Kafkaesque Koffka","3.2.5","0","z","space","NA","NA","NA","space","z","441","7945","NA","NA","NA","32167","441","2","legacy","1024","2","48000","-16","BA_m21","167","odd","CW_L","RENTER","1187","323649","321908","307723","33363","309489","NA","NA","NA","320218","322405","NA","321408","NA","321396","323645","1195","323999","NA","NA","322649","1187","1187","323049","321395","1187","322649","323999","morph21_Oliver/Morris","55","46711","77","yes","1280","9"
"400","71.7948717949","71.7948717949","606.794871795","606.794871795","black","no","xpyriment","legacy","legacy","0","208","NA","uniform","63003","1000","0.0158722600511","1","undefined","1","0","77","77","77","0","77","77","77","NA","77","77","0","77","NA","77","77","0","77","NA","77","NA","77","0","0","77","77","0","77","77","78","z","03/21/19 16:53:48","The main experiment item","yes","FIN__BA__M21__7%3A10%3A17.osexp","C:\Users\ERP Testing Room\Desktop\Joanna\morph21","no","mono","no","18","no","white","no","yes","1080","legacy","77","77","C:/Users/ERP Testing Room/Desktop/Joanna/morph21/subject-167.csv","xpyriment","Kafkaesque Koffka","3.2.5","0","z","space","NA","NA","NA","space","z","619","7945","NA","NA","NA","32167","619","2","legacy","1024","2","48000","-16","BA_m21","167","odd","FILL_NW","BORMS","1187","328466","325233","326958","33363","309489","NA","NA","NA","326950","325730","NA","324733","NA","324721","326950","1195","328866","NA","NA","325958","1187","1187","326349","324721","1187","325958","328866","morph21_Oliver/Morris","56","47330","78","yes","1280","50"
"350","72.1518987342","72.1518987342","607.379746835","607.379746835","black","no","xpyriment","legacy","legacy","0","202","NA","uniform","64902","1000","0.015407845675","1","undefined","1","0","78","78","78","0","78","78","78","NA","78","78","0","78","NA","78","78","0","78","NA","78","NA","78","0","0","78","78","0","78","78","79","/","03/21/19 16:53:48","The main experiment item","yes","FIN__BA__M21__7%3A10%3A17.osexp","C:\Users\ERP Testing Room\Desktop\Joanna\morph21","no","mono","no","18","no","white","no","yes","1080","legacy","78","78","C:/Users/ERP Testing Room/Desktop/Joanna/morph21/subject-167.csv","xpyriment","Kafkaesque Koffka","3.2.5","0","/","space","NA","NA","NA","space","/","653","7945","NA","NA","NA","32167","653","2","legacy","1024","2","48000","-16","BA_m21","167","odd","CW_L","KICKING","1187","331717","330034","326958","33363","309489","NA","NA","NA","331707","330531","NA","329534","NA","329525","331707","1195","332067","NA","NA","330717","1187","1187","331109","329525","1187","330717","332067","morph21_Oliver/Morris","57","47983","79","yes","1280","23"
"300","72.5","72.5","607.0375","607.0375","black","no","xpyriment","legacy","legacy","0","208","NA","uniform","61225","1000","0.0163331972234","1","undefined","1","0","79","79","79","0","79","79","79","NA","79","79","0","79","NA","79","79","0","79","NA","79","NA","79","0","0","79","79","0","79","79","80","z","03/21/19 16:53:48","The main experiment item","yes","FIN__BA__M21__7%3A10%3A17.osexp","C:\Users\ERP Testing Room\Desktop\Joanna\morph21","no","mono","no","18","no","white","no","yes","1080","legacy","79","79","C:/Users/ERP Testing Room/Desktop/Joanna/morph21/subject-167.csv","xpyriment","Kafkaesque Koffka","3.2.5","0","z","space","NA","NA","NA","space","z","580","7945","NA","NA","NA","32167","580","2","legacy","1024","2","48000","-16","BA_m21","167","odd","FILL_NW","VOOFS","1187","334926","333242","326958","33363","309489","NA","NA","NA","334919","333739","NA","332742","NA","332737","334919","1195","335226","NA","NA","333926","1187","1187","334317","332737","1187","333926","335226","morph21_Oliver/Morris","58","48563","80","yes","1280","48"
"200","72.8395061728","72.8395061728","606.209876543","606.209876543","black","no","xpyriment","legacy","legacy","0","207","NA","uniform","66312","1000","0.0150802268066","1","undefined","1","0","80","80","80","0","80","80","80","NA","80","80","0","80","NA","80","80","0","80","NA","80","NA","80","0","0","80","80","0","80","80","81","/","03/21/19 16:53:48","The main experiment item","yes","FIN__BA__M21__7%3A10%3A17.osexp","C:\Users\ERP Testing Room\Desktop\Joanna\morph21","no","mono","no","18","no","white","no","yes","1080","legacy","80","80","C:/Users/ERP Testing Room/Desktop/Joanna/morph21/subject-167.csv","xpyriment","Kafkaesque Koffka","3.2.5","0","/","space","NA","NA","NA","space","/","540","7945","NA","NA","NA","32167","540","2","legacy","1024","2","48000","-16","BA_m21","167","odd","FILL_W","GOLF","1187","339626","336434","338118","33363","309489","NA","NA","NA","338113","336931","NA","335934","NA","335928","338113","1195","339826","NA","NA","337118","1187","1187","337517","335928","1187","337118","339826","morph21_Oliver/Morris","59","49103","81","yes","1280","28"
"400","73.1707317073","73.1707317073","605.597560976","605.597560976","black","no","xpyriment","legacy","legacy","0","201","NA","uniform","67951","1000","0.0147164868803","1","undefined","1","0","81","81","81","0","81","81","81","NA","81","81","0","81","NA","81","81","0","81","NA","81","NA","81","0","0","81","81","0","81","81","82","/","03/21/19 16:53:48","The main experiment item","yes","FIN__BA__M21__7%3A10%3A17.osexp","C:\Users\ERP Testing Room\Desktop\Joanna\morph21","no","mono","no","18","no","white","no","yes","1080","legacy","81","81","C:/Users/ERP Testing Room/Desktop/Joanna/morph21/subject-167.csv","xpyriment","Kafkaesque Koffka","3.2.5","0","/","space","NA","NA","NA","space","/","556","7945","NA","NA","NA","32167","556","2","legacy","1024","2","48000","-16","BA_m21","167","odd","CW_S","EFFORTLESS","1187","342709","340976","338118","33363","309489","NA","NA","NA","342704","341473","NA","340476","NA","340471","342704","1195","343109","NA","NA","341709","1187","1187","342101","340471","1187","341709","343109","morph21_Oliver/Morris","60","49659","82","yes","1280","30"
"350","73.4939759036","73.4939759036","604.530120482","604.530120482","black","no","xpyriment","legacy","legacy","0","207","NA","uniform","62536","1000","0.0159907893054","1","undefined","1","0","82","82","82","0","82","82","82","NA","82","82","0","82","NA","82","82","0","82","NA","82","NA","82","0","0","82","82","0","82","82","83","/","03/21/19 16:53:48","The main experiment item","yes","FIN__BA__M21__7%3A10%3A17.osexp","C:\Users\ERP Testing Room\Desktop\Joanna\morph21","no","mono","no","18","no","white","no","yes","1080","legacy","82","82","C:/Users/ERP Testing Room/Desktop/Joanna/morph21/subject-167.csv","xpyriment","Kafkaesque Koffka","3.2.5","0","/","space","NA","NA","NA","space","/","517","7945","NA","NA","NA","32167","517","2","legacy","1024","2","48000","-16","BA_m21","167","odd","FILL_W","WEIRD","1187","346051","344351","338118","33363","309489","NA","NA","NA","346047","344848","NA","343851","NA","343841","346047","1195","346401","NA","NA","345060","1187","1187","345451","343841","1187","345059","346401","morph21_Oliver/Morris","61","50176","83","yes","1280","2"
"200","72.619047619","72.619047619","602.238095238","602.238095238","black","no","xpyriment","legacy","legacy","0","208","NA","uniform","70899","1000","0.0141045712916","0","undefined","0","0","83","83","83","0","83","83","83","NA","83","83","0","83","NA","83","83","0","83","NA","83","NA","83","0","0","83","83","0","83","83","84","z","03/21/19 16:53:48","The main experiment item","yes","FIN__BA__M21__7%3A10%3A17.osexp","C:\Users\ERP Testing Room\Desktop\Joanna\morph21","no","mono","no","18","no","white","no","yes","1080","legacy","83","83","C:/Users/ERP Testing Room/Desktop/Joanna/morph21/subject-167.csv","xpyriment","Kafkaesque Koffka","3.2.5","0","/","space","NA","NA","NA","space","/","412","7945","NA","NA","NA","32167","412","2","legacy","1024","2","48000","-16","BA_m21","167","odd","FILL_NW","BLAYS","1187","350786","347586","349277","33363","309489","NA","NA","NA","346047","348083","NA","347086","NA","347080","349273","1195","350986","NA","NA","348286","1187","1187","348677","347080","1187","348286","350986","morph21_Oliver/Morris","61","50588","84","yes","1280","8"
"350","72.9411764706","72.9411764706","600.952941176","600.952941176","black","no","xpyriment","legacy","legacy","0","202","NA","uniform","66645","1000","0.0150048765849","1","undefined","1","0","84","84","84","0","84","84","84","NA","84","84","0","84","NA","84","84","0","84","NA","84","NA","84","0","0","84","84","0","84","84","85","/","03/21/19 16:53:48","The main experiment item","yes","FIN__BA__M21__7%3A10%3A17.osexp","C:\Users\ERP Testing Room\Desktop\Joanna\morph21","no","mono","no","18","no","white","no","yes","1080","legacy","84","84","C:/Users/ERP Testing Room/Desktop/Joanna/morph21/subject-167.csv","xpyriment","Kafkaesque Koffka","3.2.5","0","/","space","NA","NA","NA","space","/","493","7945","NA","NA","NA","32167","493","2","legacy","1024","2","48000","-16","BA_m21","167","odd","CW_L","GUARDING","1187","353869","352194","349277","33363","309489","NA","NA","NA","353860","352691","NA","351694","NA","351688","353860","1195","354219","NA","NA","352869","1187","1187","353261","351688","1187","352869","354219","morph21_Oliver/Morris","62","51081","85","yes","1280","26"
"200","73.2558139535","73.2558139535","598.930232558","598.930232558","black","no","xpyriment","legacy","legacy","0","207","NA","uniform","67716","1000","0.0147675586272","1","undefined","1","0","85","85","85","0","85","85","85","NA","85","85","0","85","NA","85","85","0","85","NA","85","NA","85","0","0","85","85","0","85","85","86","/","03/21/19 16:53:48","The main experiment item","yes","FIN__BA__M21__7%3A10%3A17.osexp","C:\Users\ERP Testing Room\Desktop\Joanna\morph21","no","mono","no","18","no","white","no","yes","1080","legacy","85","85","C:/Users/ERP Testing Room/Desktop/Joanna/morph21/subject-167.csv","xpyriment","Kafkaesque Koffka","3.2.5","0","/","space","NA","NA","NA","space","/","427","7945","NA","NA","NA","32167","427","2","legacy","1024","2","48000","-16","BA_m21","167","odd","FILL_W","LEGAL","1187","357119","355436","349277","33363","309489","NA","NA","NA","357109","355933","NA","354936","NA","354930","357109","1195","357319","NA","NA","356119","1187","1187","356511","354930","1187","356119","357319","morph21_Oliver/Morris","63","51508","86","yes","1280","35"
"350","73.5632183908","73.5632183908","602.862068966","602.862068966","black","no","xpyriment","legacy","legacy","0","204","NA","uniform","48425","1000","0.0206504904491","1","undefined","1","0","86","86","86","0","86","86","86","NA","86","86","0","86","NA","86","86","0","86","NA","86","NA","86","0","0","86","86","0","86","86","87","z","03/21/19 16:53:48","The main experiment item","yes","FIN__BA__M21__7%3A10%3A17.osexp","C:\Users\ERP Testing Room\Desktop\Joanna\morph21","no","mono","no","18","no","white","no","yes","1080","legacy","86","86","C:/Users/ERP Testing Room/Desktop/Joanna/morph21/subject-167.csv","xpyriment","Kafkaesque Koffka","3.2.5","0","z","space","NA","NA","NA","space","z","941","7945","NA","NA","NA","32167","941","2","legacy","1024","2","48000","-16","BA_m21","167","odd","NW_L_COMP","AGREELA","1187","361753","358553","360245","33363","309489","NA","NA","NA","360239","359050","NA","358053","NA","358045","360239","1195","362103","NA","NA","359244","1187","1187","359636","358045","1187","359244","362103","morph21_Oliver/Morris","64","52449","87","yes","1280","24"
"350","73.8636363636","73.8636363636","600.113636364","600.113636364","black","no","xpyriment","legacy","legacy","0","201","NA","uniform","78807","1000","0.0126892281143","1","undefined","1","0","87","87","87","0","87","87","87","NA","87","87","0","87","NA","87","87","0","87","NA","87","NA","87","0","0","87","87","0","87","87","88","/","03/21/19 16:53:48","The main experiment item","yes","FIN__BA__M21__7%3A10%3A17.osexp","C:\Users\ERP Testing Room\Desktop\Joanna\morph21","no","mono","no","18","no","white","no","yes","1080","legacy","87","87","C:/Users/ERP Testing Room/Desktop/Joanna/morph21/subject-167.csv","xpyriment","Kafkaesque Koffka","3.2.5","0","/","space","NA","NA","NA","space","/","361","7945","NA","NA","NA","32167","361","2","legacy","1024","2","48000","-16","BA_m21","167","odd","CW_S","BOSSY","1187","364921","363220","360245","33363","309489","NA","NA","NA","364911","363717","NA","362720","NA","362713","364911","1195","365271","NA","NA","363921","1187","1187","364312","362713","1187","363921","365271","morph21_Oliver/Morris","65","52810","88","yes","1280","49"
"300","73.0337078652","73.0337078652","597.865168539","597.865168539","black","no","xpyriment","legacy","legacy","0","208","NA","uniform","67335","1000","0.0148511175466","0","undefined","0","0","88","88","88","0","88","88","88","NA","88","88","0","88","NA","88","88","0","88","NA","88","NA","88","0","0","88","88","0","88","88","89","z","03/21/19 16:53:48","The main experiment item","yes","FIN__BA__M21__7%3A10%3A17.osexp","C:\Users\ERP Testing Room\Desktop\Joanna\morph21","no","mono","no","18","no","white","no","yes","1080","legacy","88","88","C:/Users/ERP Testing Room/Desktop/Joanna/morph21/subject-167.csv","xpyriment","Kafkaesque Koffka","3.2.5","0","/","space","NA","NA","NA","space","/","400","7945","NA","NA","NA","32167","400","2","legacy","1024","2","48000","-16","BA_m21","167","odd","FILL_NW","DULKS","1187","368162","366496","360245","33363","309489","NA","NA","NA","364911","366993","NA","365996","NA","365985","368155","1195","368462","NA","NA","367162","1187","1187","367554","365985","1187","367162","368462","morph21_Oliver/Morris","65","53210","89","yes","1280","18"
"300","73.3333333333","73.3333333333","599.666666667","599.666666667","black","no","xpyriment","legacy","legacy","0","205","NA","uniform","56525","1000","0.0176912870411","1","undefined","1","0","89","89","89","0","89","89","89","NA","89","89","0","89","NA","89","89","0","89","NA","89","NA","89","0","0","89","89","0","89","89","90","z","03/21/19 16:53:48","The main experiment item","yes","FIN__BA__M21__7%3A10%3A17.osexp","C:\Users\ERP Testing Room\Desktop\Joanna\morph21","no","mono","no","18","no","white","no","yes","1080","legacy","89","89","C:/Users/ERP Testing Room/Desktop/Joanna/morph21/subject-167.csv","xpyriment","Kafkaesque Koffka","3.2.5","0","z","space","NA","NA","NA","space","z","760","7945","NA","NA","NA","32167","760","2","legacy","1024","2","48000","-16","BA_m21","167","odd","NW_S_SIMP","HEIRIC","1187","372863","369671","371354","33363","309489","NA","NA","NA","371347","370168","NA","369171","NA","369167","371347","1195","373163","NA","NA","370354","1187","1187","370746","369167","1187","370354","373163","morph21_Oliver/Morris","66","53970","90","yes","1280","3"
"250","73.6263736264","73.6263736264","597.714285714","597.714285714","black","no","xpyriment","legacy","legacy","0","207","NA","uniform","66683","1000","0.0149963259002","1","undefined","1","0","90","90","90","0","90","90","90","NA","90","90","0","90","NA","90","90","0","90","NA","90","NA","90","0","0","90","90","0","90","90","91","/","03/21/19 16:53:48","The main experiment item","yes","FIN__BA__M21__7%3A10%3A17.osexp","C:\Users\ERP Testing Room\Desktop\Joanna\morph21","no","mono","no","18","no","white","no","yes","1080","legacy","90","90","C:/Users/ERP Testing Room/Desktop/Joanna/morph21/subject-167.csv","xpyriment","Kafkaesque Koffka","3.2.5","0","/","space","NA","NA","NA","space","/","422","7945","NA","NA","NA","32167","422","2","legacy","1024","2","48000","-16","BA_m21","167","odd","FILL_W","SHIP","1187","376004","374313","371354","33363","309489","NA","NA","NA","375998","374810","NA","373813","NA","373802","375998","1195","376255","NA","NA","375004","1187","1187","375396","373802","1187","375004","376255","morph21_Oliver/Morris","67","54392","91","yes","1280","37"
