"ITI","acc","accuracy","average_response_time","avg_rt","background","bidi","canvas_backend","clock_backend","color_backend","compensation","cond_trig","condtrigtime","coordinates","coroutines_cycles","coroutines_duration","coroutines_mean_cycle_duration","correct","correct_instructions_1","correct_new_keyboard_response_1","count_BA_m21","count_ITI","count_blank_screen","count_blink_screen","count_block1","count_break1","count_break2","count_break3_1","count_canvas","count_correct_trigger","count_def_chain","count_end_screen","count_fixation_1","count_getting_started","count_inc_counter","count_incorrect_trigger","count_instructions_1","count_logger","count_logscript","count_new_coroutines","count_new_inline_script","count_new_keyboard_response_1","count_reset_counter_prep","count_reset_counter_run","count_responsescreen","count_sequence","count_start_trigger","count_target_present","count_word_trigger","counter","cresp","datetime","description","disable_garbage_collection","experiment_file","experiment_path","font_bold","font_family","font_italic","font_size","font_underline","foreground","form_clicks","fullscreen","height","keyboard_backend","live_row","live_row_block1","logfile","mouse_backend","opensesame_codename","opensesame_version","repeat_cycle","response","response_break1","response_break2","response_break3_1","response_end_screen","response_instructions_1","response_new_keyboard_response_1","response_time","response_time_break1","response_time_break2","response_time_break3_1","response_time_end_screen","response_time_instructions_1","response_time_new_keyboard_response_1","round_decimals","sampler_backend","sound_buf_size","sound_channels","sound_freq","sound_sample_size","start","subject_nr","subject_parity","targ_type","target","time_BA_m21","time_ITI","time_blank_screen","time_blink_screen","time_block1","time_break1","time_break2","time_break3_1","time_canvas","time_correct_trigger","time_def_chain","time_end_screen","time_fixation_1","time_getting_started","time_inc_counter","time_incorrect_trigger","time_instructions_1","time_logger","time_logscript","time_new_inline_script","time_new_keyboard_response_1","time_reset_counter_prep","time_reset_counter_run","time_responsescreen","time_sequence","time_start_trigger","time_target_present","time_word_trigger","title","total_correct","total_response_time","total_responses","uniform_coordinates","width","word_trig"
"300","100","100","539","539","black","no","xpyriment","legacy","legacy","0","202","NA","uniform","70025","1000","0.0142806140664","1","undefined","1","0","0","0","0","0","0","0","0","NA","0","0","0","0","NA","0","0","0","0","NA","0","NA","0","0","0","0","0","0","0","0","1","/","09/17/18 16:37:30","The main experiment item","yes","FIN__BA__M21__7%3A10%3A17.osexp","C:\Users\ERP Testing Room\Desktop\Joanna\morph21","no","mono","no","18","no","white","no","yes","1080","legacy","0","0","C:/Users/ERP Testing Room/Desktop/Joanna/morph21/subject-135.csv","xpyriment","Jazzy James","3.1.4","0","/","NA","NA","NA","NA","space","/","539","NA","NA","NA","NA","17103","539","2","legacy","1024","2","48000","-16","BA_m21","135","odd","CW_L","MADNESS","1741","21776","20160","NA","18861","NA","NA","NA","NA","21773","20657","NA","19656","NA","19586","21773","1757","22076","NA","NA","20785","1741","1741","21176","19586","1741","20785","22076","morph21_Oliver/Morris","1","539","1","yes","1280","41"
"300","50","50","740","740","black","no","xpyriment","legacy","legacy","0","202","NA","uniform","56747","1000","0.017622076938","0","undefined","0","0","1","1","1","0","1","1","1","NA","1","1","0","1","NA","1","1","0","1","NA","1","NA","1","0","0","1","1","0","1","1","2","/","09/17/18 16:37:30","The main experiment item","yes","FIN__BA__M21__7%3A10%3A17.osexp","C:\Users\ERP Testing Room\Desktop\Joanna\morph21","no","mono","no","18","no","white","no","yes","1080","legacy","1","1","C:/Users/ERP Testing Room/Desktop/Joanna/morph21/subject-135.csv","xpyriment","Jazzy James","3.1.4","0","z","NA","NA","NA","NA","space","z","941","NA","NA","NA","NA","17103","941","2","legacy","1024","2","48000","-16","BA_m21","135","odd","CW_L","WEEDY","1741","24943","23343","NA","18861","NA","NA","NA","NA","21773","23840","NA","22843","NA","22833","24934","1757","25243","NA","NA","23943","1741","1741","24335","22833","1741","23943","25243","morph21_Oliver/Morris","1","1480","2","yes","1280","48"
"250","66.6666666667","66.6666666667","693.333333333","693.333333333","black","no","xpyriment","legacy","legacy","0","201","NA","uniform","74560","1000","0.0134120171674","1","undefined","1","0","2","2","2","0","2","2","2","NA","2","2","0","2","NA","2","2","0","2","NA","2","NA","2","0","0","2","2","0","2","2","3","/","09/17/18 16:37:30","The main experiment item","yes","FIN__BA__M21__7%3A10%3A17.osexp","C:\Users\ERP Testing Room\Desktop\Joanna\morph21","no","mono","no","18","no","white","no","yes","1080","legacy","2","2","C:/Users/ERP Testing Room/Desktop/Joanna/morph21/subject-135.csv","xpyriment","Jazzy James","3.1.4","0","/","NA","NA","NA","NA","space","/","600","NA","NA","NA","NA","17103","600","2","legacy","1024","2","48000","-16","BA_m21","135","odd","CW_S","JAILER","1741","29778","26652","28269","18861","NA","NA","NA","NA","28263","27149","NA","26152","NA","26143","28263","1757","30028","NA","NA","27268","1741","1741","27660","26143","1741","27268","30028","morph21_Oliver/Morris","2","2080","3","yes","1280","13"
"350","75","75","719.25","719.25","black","no","xpyriment","legacy","legacy","0","203","NA","uniform","61204","1000","0.0163388013855","1","undefined","1","0","3","3","3","0","3","3","3","NA","3","3","0","3","NA","3","3","0","3","NA","3","NA","3","0","0","3","3","0","3","3","4","z","09/17/18 16:37:30","The main experiment item","yes","FIN__BA__M21__7%3A10%3A17.osexp","C:\Users\ERP Testing Room\Desktop\Joanna\morph21","no","mono","no","18","no","white","no","yes","1080","legacy","3","3","C:/Users/ERP Testing Room/Desktop/Joanna/morph21/subject-135.csv","xpyriment","Jazzy James","3.1.4","0","z","NA","NA","NA","NA","space","z","797","NA","NA","NA","NA","17103","797","2","legacy","1024","2","48000","-16","BA_m21","135","odd","NW_S_COMP","HUMIDOES","1741","32920","31311","28269","18861","NA","NA","NA","NA","32912","31808","NA","30811","NA","30806","32912","1757","33270","NA","NA","31920","1741","1741","32311","30806","1741","31920","33270","morph21_Oliver/Morris","3","2877","4","yes","1280","25"
"300","80","80","761","761","black","no","xpyriment","legacy","legacy","0","204","NA","uniform","60311","1000","0.0165807232511","1","undefined","1","0","4","4","4","0","4","4","4","NA","4","4","0","4","NA","4","4","0","4","NA","4","NA","4","0","0","4","4","0","4","4","5","z","09/17/18 16:37:30","The main experiment item","yes","FIN__BA__M21__7%3A10%3A17.osexp","C:\Users\ERP Testing Room\Desktop\Joanna\morph21","no","mono","no","18","no","white","no","yes","1080","legacy","4","4","C:/Users/ERP Testing Room/Desktop/Joanna/morph21/subject-135.csv","xpyriment","Jazzy James","3.1.4","0","z","NA","NA","NA","NA","space","z","928","NA","NA","NA","NA","17103","928","2","legacy","1024","2","48000","-16","BA_m21","135","odd","NW_L_COMP","SHEETEL","1741","36061","34470","28269","18861","NA","NA","NA","NA","36051","34967","NA","33970","NA","33961","36051","1757","36361","NA","NA","35061","1741","1741","35453","33961","1741","35061","36361","morph21_Oliver/Morris","4","3805","5","yes","1280","5"
"400","66.6666666667","66.6666666667","800","800","black","no","xpyriment","legacy","legacy","0","204","NA","uniform","59457","1000","0.0168188775081","0","undefined","0","0","5","5","5","0","5","5","5","NA","5","5","0","5","NA","5","5","0","5","NA","5","NA","5","0","0","5","5","0","5","5","6","z","09/17/18 16:37:30","The main experiment item","yes","FIN__BA__M21__7%3A10%3A17.osexp","C:\Users\ERP Testing Room\Desktop\Joanna\morph21","no","mono","no","18","no","white","no","yes","1080","legacy","5","5","C:/Users/ERP Testing Room/Desktop/Joanna/morph21/subject-135.csv","xpyriment","Jazzy James","3.1.4","0","None","NA","NA","NA","NA","space","None","995","NA","NA","NA","NA","17103","995","2","legacy","1024","2","48000","-16","BA_m21","135","odd","NW_L_COMP","RIPENGE","1741","40745","37653","39237","18861","NA","NA","NA","NA","36051","38150","NA","37153","NA","37149","39233","1757","41145","NA","NA","38237","1741","1741","38637","37149","1741","38237","41145","morph21_Oliver/Morris","4","4800","6","yes","1280","4"
"200","57.1428571429","57.1428571429","809.571428571","809.571428571","black","no","xpyriment","legacy","legacy","0","205","NA","uniform","60334","1000","0.0165744024928","0","undefined","0","0","6","6","6","0","6","6","6","NA","6","6","0","6","NA","6","6","0","6","NA","6","NA","6","0","0","6","6","0","6","6","7","z","09/17/18 16:37:30","The main experiment item","yes","FIN__BA__M21__7%3A10%3A17.osexp","C:\Users\ERP Testing Room\Desktop\Joanna\morph21","no","mono","no","18","no","white","no","yes","1080","legacy","6","6","C:/Users/ERP Testing Room/Desktop/Joanna/morph21/subject-135.csv","xpyriment","Jazzy James","3.1.4","0","/","NA","NA","NA","NA","space","/","867","NA","NA","NA","NA","17103","867","2","legacy","1024","2","48000","-16","BA_m21","135","odd","NW_S_SIMP","NULLISH","1741","43953","42337","39237","18861","NA","NA","NA","NA","36051","42834","NA","41837","NA","41830","43945","1757","44153","NA","NA","42953","1741","1741","43345","41830","1741","42953","44153","morph21_Oliver/Morris","4","5667","7","yes","1280","23"
"250","50","50","806.25","806.25","black","no","xpyriment","legacy","legacy","0","206","NA","uniform","61910","1000","0.0161524794056","0","undefined","0","0","7","7","7","0","7","7","7","NA","7","7","0","7","NA","7","7","0","7","NA","7","NA","7","0","0","7","7","0","7","7","8","z","09/17/18 16:37:30","The main experiment item","yes","FIN__BA__M21__7%3A10%3A17.osexp","C:\Users\ERP Testing Room\Desktop\Joanna\morph21","no","mono","no","18","no","white","no","yes","1080","legacy","7","7","C:/Users/ERP Testing Room/Desktop/Joanna/morph21/subject-135.csv","xpyriment","Jazzy James","3.1.4","0","/","NA","NA","NA","NA","space","/","783","NA","NA","NA","NA","17103","783","2","legacy","1024","2","48000","-16","BA_m21","135","odd","NW_L_SIMP","SMOOTHFUL","1741","47038","45429","39237","18861","NA","NA","NA","NA","36051","45926","NA","44928","NA","44918","47031","1757","47288","NA","NA","46038","1741","1741","46430","44918","1741","46038","47288","morph21_Oliver/Morris","4","6450","8","yes","1280","19"
"300","44.4444444444","44.4444444444","826.888888889","826.888888889","black","no","xpyriment","legacy","legacy","0","205","NA","uniform","57254","1000","0.0174660285744","0","undefined","0","0","8","8","8","0","8","8","8","NA","8","8","0","8","NA","8","8","0","8","NA","8","NA","8","0","0","8","8","0","8","8","9","z","09/17/18 16:37:30","The main experiment item","yes","FIN__BA__M21__7%3A10%3A17.osexp","C:\Users\ERP Testing Room\Desktop\Joanna\morph21","no","mono","no","18","no","white","no","yes","1080","legacy","8","8","C:/Users/ERP Testing Room/Desktop/Joanna/morph21/subject-135.csv","xpyriment","Jazzy James","3.1.4","0","None","NA","NA","NA","NA","space","None","992","NA","NA","NA","NA","17103","992","2","legacy","1024","2","48000","-16","BA_m21","135","odd","NW_S_SIMP","WARNORY","1741","51680","48563","50171","18861","NA","NA","NA","NA","36051","49060","NA","48063","NA","48056","50163","1757","51980","NA","NA","49171","1741","1741","49563","48056","1741","49171","51980","morph21_Oliver/Morris","4","7442","9","yes","1280","12"
"250","50","50","809.7","809.7","black","no","xpyriment","legacy","legacy","0","207","NA","uniform","62548","1000","0.0159877214299","1","undefined","1","0","9","9","9","0","9","9","9","NA","9","9","0","9","NA","9","9","0","9","NA","9","NA","9","0","0","9","9","0","9","9","10","/","09/17/18 16:37:30","The main experiment item","yes","FIN__BA__M21__7%3A10%3A17.osexp","C:\Users\ERP Testing Room\Desktop\Joanna\morph21","no","mono","no","18","no","white","no","yes","1080","legacy","9","9","C:/Users/ERP Testing Room/Desktop/Joanna/morph21/subject-135.csv","xpyriment","Jazzy James","3.1.4","0","/","NA","NA","NA","NA","space","/","655","NA","NA","NA","NA","17103","655","2","legacy","1024","2","48000","-16","BA_m21","135","odd","FILL_W","FIERCE","1741","54797","53188","50171","18861","NA","NA","NA","NA","54787","53685","NA","52688","NA","52681","54787","1757","55047","NA","NA","53797","1741","1741","54188","52681","1741","53797","55047","morph21_Oliver/Morris","5","8097","10","yes","1280","24"
"200","54.5454545455","54.5454545455","787.636363636","787.636363636","black","no","xpyriment","legacy","legacy","0","207","NA","uniform","68069","1000","0.0146909753339","1","undefined","1","0","10","10","10","0","10","10","10","NA","10","10","0","10","NA","10","10","0","10","NA","10","NA","10","0","0","10","10","0","10","10","11","/","09/17/18 16:37:30","The main experiment item","yes","FIN__BA__M21__7%3A10%3A17.osexp","C:\Users\ERP Testing Room\Desktop\Joanna\morph21","no","mono","no","18","no","white","no","yes","1080","legacy","10","10","C:/Users/ERP Testing Room/Desktop/Joanna/morph21/subject-135.csv","xpyriment","Jazzy James","3.1.4","0","/","NA","NA","NA","NA","space","/","567","NA","NA","NA","NA","17103","567","2","legacy","1024","2","48000","-16","BA_m21","135","odd","FILL_W","SAVE","1741","58005","56397","50171","18861","NA","NA","NA","NA","57996","56894","NA","55897","NA","55889","57996","1757","58205","NA","NA","57005","1741","1741","57397","55889","1741","57005","58205","morph21_Oliver/Morris","6","8664","11","yes","1280","46"
"400","50","50","804.583333333","804.583333333","black","no","xpyriment","legacy","legacy","0","202","NA","uniform","59055","1000","0.0169333672001","0","undefined","0","0","11","11","11","0","11","11","11","NA","11","11","0","11","NA","11","11","0","11","NA","11","NA","11","0","0","11","11","0","11","11","12","/","09/17/18 16:37:30","The main experiment item","yes","FIN__BA__M21__7%3A10%3A17.osexp","C:\Users\ERP Testing Room\Desktop\Joanna\morph21","no","mono","no","18","no","white","no","yes","1080","legacy","11","11","C:/Users/ERP Testing Room/Desktop/Joanna/morph21/subject-135.csv","xpyriment","Jazzy James","3.1.4","0","None","NA","NA","NA","NA","space","None","991","NA","NA","NA","NA","17103","991","2","legacy","1024","2","48000","-16","BA_m21","135","odd","CW_L","DRYNESS","1741","62564","59472","61055","18861","NA","NA","NA","NA","57996","59969","NA","58964","NA","58952","61046","1757","62964","NA","NA","60055","1741","1741","60447","58952","1741","60055","62964","morph21_Oliver/Morris","6","9655","12","yes","1280","42"
"250","53.8461538462","53.8461538462","782.307692308","782.307692308","black","no","xpyriment","legacy","legacy","0","207","NA","uniform","70390","1000","0.0142065634323","1","undefined","1","0","12","12","12","0","12","12","12","NA","12","12","0","12","NA","12","12","0","12","NA","12","NA","12","0","0","12","12","0","12","12","13","/","09/17/18 16:37:30","The main experiment item","yes","FIN__BA__M21__7%3A10%3A17.osexp","C:\Users\ERP Testing Room\Desktop\Joanna\morph21","no","mono","no","18","no","white","no","yes","1080","legacy","12","12","C:/Users/ERP Testing Room/Desktop/Joanna/morph21/subject-135.csv","xpyriment","Jazzy James","3.1.4","0","/","NA","NA","NA","NA","space","/","515","NA","NA","NA","NA","17103","515","2","legacy","1024","2","48000","-16","BA_m21","135","odd","FILL_W","TASTE","1741","65898","64290","61055","18861","NA","NA","NA","NA","65894","64787","NA","63790","NA","63782","65894","1757","66148","NA","NA","64906","1741","1741","65298","63782","1741","64906","66148","morph21_Oliver/Morris","7","10170","13","yes","1280","34"
"400","57.1428571429","57.1428571429","772.071428571","772.071428571","black","no","xpyriment","legacy","legacy","0","207","NA","uniform","71239","1000","0.0140372548744","1","undefined","1","0","13","13","13","0","13","13","13","NA","13","13","0","13","NA","13","13","0","13","NA","13","NA","13","0","0","13","13","0","13","13","14","/","09/17/18 16:37:30","The main experiment item","yes","FIN__BA__M21__7%3A10%3A17.osexp","C:\Users\ERP Testing Room\Desktop\Joanna\morph21","no","mono","no","18","no","white","no","yes","1080","legacy","13","13","C:/Users/ERP Testing Room/Desktop/Joanna/morph21/subject-135.csv","xpyriment","Jazzy James","3.1.4","0","/","NA","NA","NA","NA","space","/","639","NA","NA","NA","NA","17103","639","2","legacy","1024","2","48000","-16","BA_m21","135","odd","FILL_W","QUIT","1741","68998","67381","61055","18861","NA","NA","NA","NA","68990","67879","NA","66881","NA","66876","68990","1757","69398","NA","NA","67998","1741","1741","68390","66876","1741","67998","69398","morph21_Oliver/Morris","8","10809","14","yes","1280","21"
"200","60","60","774.533333333","774.533333333","black","no","xpyriment","legacy","legacy","0","203","NA","uniform","67038","1000","0.0149169127957","1","undefined","1","0","14","14","14","0","14","14","14","NA","14","14","0","14","NA","14","14","0","14","NA","14","NA","14","0","0","14","14","0","14","14","15","z","09/17/18 16:37:30","The main experiment item","yes","FIN__BA__M21__7%3A10%3A17.osexp","C:\Users\ERP Testing Room\Desktop\Joanna\morph21","no","mono","no","18","no","white","no","yes","1080","legacy","14","14","C:/Users/ERP Testing Room/Desktop/Joanna/morph21/subject-135.csv","xpyriment","Jazzy James","3.1.4","0","z","NA","NA","NA","NA","space","z","809","NA","NA","NA","NA","17103","809","2","legacy","1024","2","48000","-16","BA_m21","135","odd","NW_S_COMP","ADOPTISH","1741","73823","70715","72315","18861","NA","NA","NA","NA","72310","71212","NA","70215","NA","70208","72310","1757","74024","NA","NA","71315","1741","1741","71715","70208","1741","71315","74024","morph21_Oliver/Morris","9","11618","15","yes","1280","19"
"300","56.25","56.25","788.375","788.375","black","no","xpyriment","legacy","legacy","0","205","NA","uniform","51644","1000","0.0193633335915","0","undefined","0","0","15","15","15","0","15","15","15","NA","15","15","0","15","NA","15","15","0","15","NA","15","NA","15","0","0","15","15","0","15","15","16","z","09/17/18 16:37:30","The main experiment item","yes","FIN__BA__M21__7%3A10%3A17.osexp","C:\Users\ERP Testing Room\Desktop\Joanna\morph21","no","mono","no","18","no","white","no","yes","1080","legacy","15","15","C:/Users/ERP Testing Room/Desktop/Joanna/morph21/subject-135.csv","xpyriment","Jazzy James","3.1.4","0","None","NA","NA","NA","NA","space","None","996","NA","NA","NA","NA","17103","996","2","legacy","1024","2","48000","-16","BA_m21","135","odd","NW_S_SIMP","FEVERIZE","1741","77015","75390","72315","18861","NA","NA","NA","NA","72310","75887","NA","74890","NA","74886","77011","1757","77315","NA","NA","76015","1741","1741","76415","74886","1741","76015","77315","morph21_Oliver/Morris","9","12614","16","yes","1280","24"
"350","58.8235294118","58.8235294118","776.235294118","776.235294118","black","no","xpyriment","legacy","legacy","0","201","NA","uniform","74902","1000","0.0133507783504","1","undefined","1","0","16","16","16","0","16","16","16","NA","16","16","0","16","NA","16","16","0","16","NA","16","NA","16","0","0","16","16","0","16","16","17","/","09/17/18 16:37:30","The main experiment item","yes","FIN__BA__M21__7%3A10%3A17.osexp","C:\Users\ERP Testing Room\Desktop\Joanna\morph21","no","mono","no","18","no","white","no","yes","1080","legacy","16","16","C:/Users/ERP Testing Room/Desktop/Joanna/morph21/subject-135.csv","xpyriment","Jazzy James","3.1.4","0","/","NA","NA","NA","NA","space","/","582","NA","NA","NA","NA","17103","582","2","legacy","1024","2","48000","-16","BA_m21","135","odd","CW_S","TOASTER","1741","80174","78590","72315","18861","NA","NA","NA","NA","80165","79087","NA","78090","NA","78082","80165","1757","80524","NA","NA","79174","1741","1741","79565","78082","1741","79174","80524","morph21_Oliver/Morris","10","13196","17","yes","1280","10"
"250","61.1111111111","61.1111111111","779.166666667","779.166666667","black","no","xpyriment","legacy","legacy","0","202","NA","uniform","61579","1000","0.0162393023596","1","undefined","1","0","17","17","17","0","17","17","17","NA","17","17","0","17","NA","17","17","0","17","NA","17","NA","17","0","0","17","17","0","17","17","18","/","09/17/18 16:37:30","The main experiment item","yes","FIN__BA__M21__7%3A10%3A17.osexp","C:\Users\ERP Testing Room\Desktop\Joanna\morph21","no","mono","no","18","no","white","no","yes","1080","legacy","17","17","C:/Users/ERP Testing Room/Desktop/Joanna/morph21/subject-135.csv","xpyriment","Jazzy James","3.1.4","0","/","NA","NA","NA","NA","space","/","829","NA","NA","NA","NA","17103","829","2","legacy","1024","2","48000","-16","BA_m21","135","odd","CW_L","DREAMER","1741","84917","81825","83408","18861","NA","NA","NA","NA","83400","82322","NA","81325","NA","81320","83400","1757","85167","NA","NA","82408","1741","1741","82800","81320","1741","82408","85167","morph21_Oliver/Morris","11","14025","18","yes","1280","12"
"300","63.1578947368","63.1578947368","763.631578947","763.631578947","black","no","xpyriment","legacy","legacy","0","201","NA","uniform","71769","1000","0.0139335924982","1","undefined","1","0","18","18","18","0","18","18","18","NA","18","18","0","18","NA","18","18","0","18","NA","18","NA","18","0","0","18","18","0","18","18","19","/","09/17/18 16:37:30","The main experiment item","yes","FIN__BA__M21__7%3A10%3A17.osexp","C:\Users\ERP Testing Room\Desktop\Joanna\morph21","no","mono","no","18","no","white","no","yes","1080","legacy","18","18","C:/Users/ERP Testing Room/Desktop/Joanna/morph21/subject-135.csv","xpyriment","Jazzy James","3.1.4","0","/","NA","NA","NA","NA","space","/","484","NA","NA","NA","NA","17103","484","2","legacy","1024","2","48000","-16","BA_m21","135","odd","CW_S","RISKY","1741","88033","86450","83408","18861","NA","NA","NA","NA","88026","86947","NA","85950","NA","85939","88026","1757","88333","NA","NA","87033","1741","1741","87425","85939","1741","87033","88333","morph21_Oliver/Morris","12","14509","19","yes","1280","50"
"300","65","65","747.4","747.4","black","no","xpyriment","legacy","legacy","0","207","NA","uniform","67404","1000","0.0148359147825","1","undefined","1","0","19","19","19","0","19","19","19","NA","19","19","0","19","NA","19","19","0","19","NA","19","NA","19","0","0","19","19","0","19","19","20","/","09/17/18 16:37:30","The main experiment item","yes","FIN__BA__M21__7%3A10%3A17.osexp","C:\Users\ERP Testing Room\Desktop\Joanna\morph21","no","mono","no","18","no","white","no","yes","1080","legacy","19","19","C:/Users/ERP Testing Room/Desktop/Joanna/morph21/subject-135.csv","xpyriment","Jazzy James","3.1.4","0","/","NA","NA","NA","NA","space","/","439","NA","NA","NA","NA","17103","439","2","legacy","1024","2","48000","-16","BA_m21","135","odd","FILL_W","BAKE","1741","91125","89517","83408","18861","NA","NA","NA","NA","91115","90014","NA","89017","NA","89012","91115","1757","91425","NA","NA","90125","1741","1741","90517","89012","1741","90125","91425","morph21_Oliver/Morris","13","14948","20","yes","1280","29"
"300","66.6666666667","66.6666666667","749.666666667","749.666666667","black","no","xpyriment","legacy","legacy","0","204","NA","uniform","54247","1000","0.0184341991262","1","undefined","1","0","20","20","20","0","20","20","20","NA","20","20","0","20","NA","20","20","0","20","NA","20","NA","20","0","0","20","20","0","20","20","21","z","09/17/18 16:37:30","The main experiment item","yes","FIN__BA__M21__7%3A10%3A17.osexp","C:\Users\ERP Testing Room\Desktop\Joanna\morph21","no","mono","no","18","no","white","no","yes","1080","legacy","20","20","C:/Users/ERP Testing Room/Desktop/Joanna/morph21/subject-135.csv","xpyriment","Jazzy James","3.1.4","0","z","NA","NA","NA","NA","space","z","795","NA","NA","NA","NA","17103","795","2","legacy","1024","2","48000","-16","BA_m21","135","odd","NW_L_COMP","BINDIG","1741","95917","92800","94409","18861","NA","NA","NA","NA","94404","93297","NA","92300","NA","92297","94404","1757","96217","NA","NA","93409","1741","1741","93809","92297","1741","93409","96217","morph21_Oliver/Morris","14","15743","21","yes","1280","22"
"350","68.1818181818","68.1818181818","736.818181818","736.818181818","black","no","xpyriment","legacy","legacy","0","201","NA","uniform","75937","1000","0.0131688109881","1","undefined","1","0","21","21","21","0","21","21","21","NA","21","21","0","21","NA","21","21","0","21","NA","21","NA","21","0","0","21","21","0","21","21","22","/","09/17/18 16:37:30","The main experiment item","yes","FIN__BA__M21__7%3A10%3A17.osexp","C:\Users\ERP Testing Room\Desktop\Joanna\morph21","no","mono","no","18","no","white","no","yes","1080","legacy","21","21","C:/Users/ERP Testing Room/Desktop/Joanna/morph21/subject-135.csv","xpyriment","Jazzy James","3.1.4","0","/","NA","NA","NA","NA","space","/","467","NA","NA","NA","NA","17103","467","2","legacy","1024","2","48000","-16","BA_m21","135","odd","CW_S","RICHNESS","1741","99026","97417","94409","18861","NA","NA","NA","NA","99018","97914","NA","96917","NA","96909","99018","1757","99377","NA","NA","98026","1741","1741","98418","96909","1741","98026","99377","morph21_Oliver/Morris","15","16210","22","yes","1280","45"
"300","69.5652173913","69.5652173913","724.130434783","724.130434783","black","no","xpyriment","legacy","legacy","0","201","NA","uniform","76527","1000","0.0130672834424","1","undefined","1","0","22","22","22","0","22","22","22","NA","22","22","0","22","NA","22","22","0","22","NA","22","NA","22","0","0","22","22","0","22","22","23","/","09/17/18 16:37:30","The main experiment item","yes","FIN__BA__M21__7%3A10%3A17.osexp","C:\Users\ERP Testing Room\Desktop\Joanna\morph21","no","mono","no","18","no","white","no","yes","1080","legacy","22","22","C:/Users/ERP Testing Room/Desktop/Joanna/morph21/subject-135.csv","xpyriment","Jazzy James","3.1.4","0","/","NA","NA","NA","NA","space","/","445","NA","NA","NA","NA","17103","445","2","legacy","1024","2","48000","-16","BA_m21","135","odd","CW_S","MAGICAL","1741","102152","100577","94409","18861","NA","NA","NA","NA","102149","101074","NA","100077","NA","100072","102149","1757","102452","NA","NA","101160","1741","1741","101552","100072","1741","101160","102452","morph21_Oliver/Morris","16","16655","23","yes","1280","4"
"200","70.8333333333","70.8333333333","717.583333333","717.583333333","black","no","xpyriment","legacy","legacy","0","202","NA","uniform","75326","1000","0.013275628601","1","undefined","1","0","23","23","23","0","23","23","23","NA","23","23","0","23","NA","23","23","0","23","NA","23","NA","23","0","0","23","23","0","23","23","24","/","09/17/18 16:37:30","The main experiment item","yes","FIN__BA__M21__7%3A10%3A17.osexp","C:\Users\ERP Testing Room\Desktop\Joanna\morph21","no","mono","no","18","no","white","no","yes","1080","legacy","23","23","C:/Users/ERP Testing Room/Desktop/Joanna/morph21/subject-135.csv","xpyriment","Jazzy James","3.1.4","0","/","NA","NA","NA","NA","space","/","567","NA","NA","NA","NA","17103","567","2","legacy","1024","2","48000","-16","BA_m21","135","odd","CW_L","VERBAL","1741","106802","103693","105293","18861","NA","NA","NA","NA","105290","104191","NA","103193","NA","103189","105290","1757","107002","NA","NA","104294","1741","1741","104693","103189","1741","104293","107002","morph21_Oliver/Morris","17","17222","24","yes","1280","50"
"250","72","72","715.64","715.64","black","no","xpyriment","legacy","legacy","0","202","NA","uniform","67535","1000","0.0148071370401","1","undefined","1","0","24","24","24","0","24","24","24","NA","24","24","0","24","NA","24","24","0","24","NA","24","NA","24","0","0","24","24","0","24","24","25","/","09/17/18 16:37:30","The main experiment item","yes","FIN__BA__M21__7%3A10%3A17.osexp","C:\Users\ERP Testing Room\Desktop\Joanna\morph21","no","mono","no","18","no","white","no","yes","1080","legacy","24","24","C:/Users/ERP Testing Room/Desktop/Joanna/morph21/subject-135.csv","xpyriment","Jazzy James","3.1.4","0","/","NA","NA","NA","NA","space","/","669","NA","NA","NA","NA","17103","669","2","legacy","1024","2","48000","-16","BA_m21","135","odd","CW_L","EXCITEMENT","1741","109735","108144","105293","18861","NA","NA","NA","NA","109730","108641","NA","107644","NA","107636","109730","1757","109985","NA","NA","108735","1741","1741","109127","107636","1741","108735","109985","morph21_Oliver/Morris","18","17891","25","yes","1280","38"
"250","73.0769230769","73.0769230769","706.846153846","706.846153846","black","no","xpyriment","legacy","legacy","0","207","NA","uniform","74715","1000","0.0133841932678","1","undefined","1","0","25","25","25","0","25","25","25","NA","25","25","0","25","NA","25","25","0","25","NA","25","NA","25","0","0","25","25","0","25","25","26","/","09/17/18 16:37:30","The main experiment item","yes","FIN__BA__M21__7%3A10%3A17.osexp","C:\Users\ERP Testing Room\Desktop\Joanna\morph21","no","mono","no","18","no","white","no","yes","1080","legacy","25","25","C:/Users/ERP Testing Room/Desktop/Joanna/morph21/subject-135.csv","xpyriment","Jazzy James","3.1.4","0","/","NA","NA","NA","NA","space","/","487","NA","NA","NA","NA","17103","487","2","legacy","1024","2","48000","-16","BA_m21","135","odd","FILL_W","TREAT","1741","112869","111277","105293","18861","NA","NA","NA","NA","112863","111774","NA","110777","NA","110767","112863","1757","113119","NA","NA","111869","1741","1741","112260","110767","1741","111869","113119","morph21_Oliver/Morris","19","18378","26","yes","1280","48"
"250","74.0740740741","74.0740740741","707.444444444","707.444444444","black","no","xpyriment","legacy","legacy","0","203","NA","uniform","71793","1000","0.0139289345758","1","undefined","1","0","26","26","26","0","26","26","26","NA","26","26","0","26","NA","26","26","0","26","NA","26","NA","26","0","0","26","26","0","26","26","27","z","09/17/18 16:37:30","The main experiment item","yes","FIN__BA__M21__7%3A10%3A17.osexp","C:\Users\ERP Testing Room\Desktop\Joanna\morph21","no","mono","no","18","no","white","no","yes","1080","legacy","26","26","C:/Users/ERP Testing Room/Desktop/Joanna/morph21/subject-135.csv","xpyriment","Jazzy James","3.1.4","0","z","NA","NA","NA","NA","space","z","723","NA","NA","NA","NA","17103","723","2","legacy","1024","2","48000","-16","BA_m21","135","odd","NW_S_COMP","LIDADY","1741","117512","114394","116003","18861","NA","NA","NA","NA","115994","114891","NA","113894","NA","113888","115994","1757","117762","NA","NA","115002","1741","1741","115395","113888","1741","115002","117762","morph21_Oliver/Morris","20","19101","27","yes","1280","3"
"350","75","75","701.642857143","701.642857143","black","no","xpyriment","legacy","legacy","0","202","NA","uniform","74519","1000","0.0134193963956","1","undefined","1","0","27","27","27","0","27","27","27","NA","27","27","0","27","NA","27","27","0","27","NA","27","NA","27","0","0","27","27","0","27","27","28","/","09/17/18 16:37:30","The main experiment item","yes","FIN__BA__M21__7%3A10%3A17.osexp","C:\Users\ERP Testing Room\Desktop\Joanna\morph21","no","mono","no","18","no","white","no","yes","1080","legacy","27","27","C:/Users/ERP Testing Room/Desktop/Joanna/morph21/subject-135.csv","xpyriment","Jazzy James","3.1.4","0","/","NA","NA","NA","NA","space","/","545","NA","NA","NA","NA","17103","545","2","legacy","1024","2","48000","-16","BA_m21","135","odd","CW_L","GUARDING","1741","120629","119045","116003","18861","NA","NA","NA","NA","120624","119542","NA","118545","NA","118536","120624","1757","120979","NA","NA","119628","1741","1741","120028","118536","1741","119628","120979","morph21_Oliver/Morris","21","19646","28","yes","1280","26"
"400","75.8620689655","75.8620689655","698.931034483","698.931034483","black","no","xpyriment","legacy","legacy","0","202","NA","uniform","65107","1000","0.0153593315619","1","undefined","1","0","28","28","28","0","28","28","28","NA","28","28","0","28","NA","28","28","0","28","NA","28","NA","28","0","0","28","28","0","28","28","29","/","09/17/18 16:37:30","The main experiment item","yes","FIN__BA__M21__7%3A10%3A17.osexp","C:\Users\ERP Testing Room\Desktop\Joanna\morph21","no","mono","no","18","no","white","no","yes","1080","legacy","28","28","C:/Users/ERP Testing Room/Desktop/Joanna/morph21/subject-135.csv","xpyriment","Jazzy James","3.1.4","0","/","NA","NA","NA","NA","space","/","623","NA","NA","NA","NA","17103","623","2","legacy","1024","2","48000","-16","BA_m21","135","odd","CW_L","SHAPELY","1741","123862","122253","116003","18861","NA","NA","NA","NA","123851","122751","NA","121754","NA","121743","123851","1757","124262","NA","NA","122862","1741","1741","123254","121743","1741","122862","124262","morph21_Oliver/Morris","22","20269","29","yes","1280","35"
"200","76.6666666667","76.6666666667","690.666666667","690.666666667","black","no","xpyriment","legacy","legacy","0","207","NA","uniform","82734","1000","0.0120869291948","1","undefined","1","0","29","29","29","0","29","29","29","NA","29","29","0","29","NA","29","29","0","29","NA","29","NA","29","0","0","29","29","0","29","29","30","/","09/17/18 16:37:30","The main experiment item","yes","FIN__BA__M21__7%3A10%3A17.osexp","C:\Users\ERP Testing Room\Desktop\Joanna\morph21","no","mono","no","18","no","white","no","yes","1080","legacy","29","29","C:/Users/ERP Testing Room/Desktop/Joanna/morph21/subject-135.csv","xpyriment","Jazzy James","3.1.4","0","/","NA","NA","NA","NA","space","/","451","NA","NA","NA","NA","17103","451","2","legacy","1024","2","48000","-16","BA_m21","135","odd","FILL_W","GOLF","1741","128637","125545","127129","18861","NA","NA","NA","NA","127125","126043","NA","125045","NA","125036","127125","1757","128837","NA","NA","126129","1741","1741","126529","125036","1741","126129","128837","morph21_Oliver/Morris","23","20720","30","yes","1280","28"
"250","77.4193548387","77.4193548387","691.032258065","691.032258065","black","no","xpyriment","legacy","legacy","0","208","NA","uniform","65632","1000","0.0152364700146","1","undefined","1","0","30","30","30","0","30","30","30","NA","30","30","0","30","NA","30","30","0","30","NA","30","NA","30","0","0","30","30","0","30","30","31","z","09/17/18 16:37:30","The main experiment item","yes","FIN__BA__M21__7%3A10%3A17.osexp","C:\Users\ERP Testing Room\Desktop\Joanna\morph21","no","mono","no","18","no","white","no","yes","1080","legacy","30","30","C:/Users/ERP Testing Room/Desktop/Joanna/morph21/subject-135.csv","xpyriment","Jazzy James","3.1.4","0","z","NA","NA","NA","NA","space","z","702","NA","NA","NA","NA","17103","702","2","legacy","1024","2","48000","-16","BA_m21","135","odd","FILL_NW","LOLDS","1741","131662","130054","127129","18861","NA","NA","NA","NA","131652","130551","NA","129554","NA","129542","131652","1757","131912","NA","NA","130662","1741","1741","131054","129542","1741","130662","131912","morph21_Oliver/Morris","24","21422","31","yes","1280","34"
"400","78.125","78.125","684.71875","684.71875","black","no","xpyriment","legacy","legacy","0","201","NA","uniform","75821","1000","0.0131889582042","1","undefined","1","0","31","31","31","0","31","31","31","NA","31","31","0","31","NA","31","31","0","31","NA","31","NA","31","0","0","31","31","0","31","31","32","/","09/17/18 16:37:30","The main experiment item","yes","FIN__BA__M21__7%3A10%3A17.osexp","C:\Users\ERP Testing Room\Desktop\Joanna\morph21","no","mono","no","18","no","white","no","yes","1080","legacy","31","31","C:/Users/ERP Testing Room/Desktop/Joanna/morph21/subject-135.csv","xpyriment","Jazzy James","3.1.4","0","/","NA","NA","NA","NA","space","/","489","NA","NA","NA","NA","17103","489","2","legacy","1024","2","48000","-16","BA_m21","135","odd","CW_S","ALLOWANCE","1741","134780","133188","127129","18861","NA","NA","NA","NA","134772","133685","NA","132687","NA","132681","134772","1757","135180","NA","NA","133780","1741","1741","134172","132681","1741","133780","135180","morph21_Oliver/Morris","25","21911","32","yes","1280","5"
"400","78.7878787879","78.7878787879","678.151515152","678.151515152","black","no","xpyriment","legacy","legacy","0","202","NA","uniform","67773","1000","0.014755138477","1","undefined","1","0","32","32","32","0","32","32","32","NA","32","32","0","32","NA","32","32","0","32","NA","32","NA","32","0","0","32","32","0","32","32","33","/","09/17/18 16:37:30","The main experiment item","yes","FIN__BA__M21__7%3A10%3A17.osexp","C:\Users\ERP Testing Room\Desktop\Joanna\morph21","no","mono","no","18","no","white","no","yes","1080","legacy","32","32","C:/Users/ERP Testing Room/Desktop/Joanna/morph21/subject-135.csv","xpyriment","Jazzy James","3.1.4","0","/","NA","NA","NA","NA","space","/","468","NA","NA","NA","NA","17103","468","2","legacy","1024","2","48000","-16","BA_m21","135","odd","CW_L","LOCKER","1741","139614","136522","138105","18861","NA","NA","NA","NA","138095","137019","NA","136022","NA","136011","138095","1757","140014","NA","NA","137105","1741","1741","137497","136011","1741","137105","140014","morph21_Oliver/Morris","26","22379","33","yes","1280","8"
"400","79.4117647059","79.4117647059","674.352941176","674.352941176","black","no","xpyriment","legacy","legacy","0","202","NA","uniform","67981","1000","0.0147099924979","1","undefined","1","0","33","33","33","0","33","33","33","NA","33","33","0","33","NA","33","33","0","33","NA","33","NA","33","0","0","33","33","0","33","33","34","/","09/17/18 16:37:30","The main experiment item","yes","FIN__BA__M21__7%3A10%3A17.osexp","C:\Users\ERP Testing Room\Desktop\Joanna\morph21","no","mono","no","18","no","white","no","yes","1080","legacy","33","33","C:/Users/ERP Testing Room/Desktop/Joanna/morph21/subject-135.csv","xpyriment","Jazzy James","3.1.4","0","/","NA","NA","NA","NA","space","/","549","NA","NA","NA","NA","17103","549","2","legacy","1024","2","48000","-16","BA_m21","135","odd","CW_L","FAITHFUL","1741","142872","141289","138105","18861","NA","NA","NA","NA","142866","141786","NA","140789","NA","140783","142866","1757","143272","NA","NA","141872","1741","1741","142264","140783","1741","141872","143272","morph21_Oliver/Morris","27","22928","34","yes","1280","20"
"200","77.1428571429","77.1428571429","679.257142857","679.257142857","black","no","xpyriment","legacy","legacy","0","208","NA","uniform","61977","1000","0.0161350178292","0","undefined","0","0","34","34","34","0","34","34","34","NA","34","34","0","34","NA","34","34","0","34","NA","34","NA","34","0","0","34","34","0","34","34","35","z","09/17/18 16:37:30","The main experiment item","yes","FIN__BA__M21__7%3A10%3A17.osexp","C:\Users\ERP Testing Room\Desktop\Joanna\morph21","no","mono","no","18","no","white","no","yes","1080","legacy","34","34","C:/Users/ERP Testing Room/Desktop/Joanna/morph21/subject-135.csv","xpyriment","Jazzy James","3.1.4","0","/","NA","NA","NA","NA","space","/","846","NA","NA","NA","NA","17103","846","2","legacy","1024","2","48000","-16","BA_m21","135","odd","FILL_NW","HOITS","1741","146222","144597","138105","18861","NA","NA","NA","NA","142866","145094","NA","144097","NA","144086","146212","1757","146422","NA","NA","145222","1741","1741","145614","144086","1741","145222","146422","morph21_Oliver/Morris","27","23774","35","yes","1280","30"
"300","77.7777777778","77.7777777778","676.027777778","676.027777778","black","no","xpyriment","legacy","legacy","0","207","NA","uniform","75792","1000","0.0131940046443","1","undefined","1","0","35","35","35","0","35","35","35","NA","35","35","0","35","NA","35","35","0","35","NA","35","NA","35","0","0","35","35","0","35","35","36","/","09/17/18 16:37:30","The main experiment item","yes","FIN__BA__M21__7%3A10%3A17.osexp","C:\Users\ERP Testing Room\Desktop\Joanna\morph21","no","mono","no","18","no","white","no","yes","1080","legacy","35","35","C:/Users/ERP Testing Room/Desktop/Joanna/morph21/subject-135.csv","xpyriment","Jazzy James","3.1.4","0","/","NA","NA","NA","NA","space","/","563","NA","NA","NA","NA","17103","563","2","legacy","1024","2","48000","-16","BA_m21","135","odd","FILL_W","BALD","1741","150790","147681","149281","18861","NA","NA","NA","NA","149272","148178","NA","147181","NA","147176","149272","1757","151090","NA","NA","148281","1741","1741","148672","147175","1741","148281","151090","morph21_Oliver/Morris","28","24337","36","yes","1280","3"
"200","75.6756756757","75.6756756757","676.756756757","676.756756757","black","no","xpyriment","legacy","legacy","0","205","NA","uniform","68240","1000","0.0146541617819","0","undefined","0","0","36","36","36","0","36","36","36","NA","36","36","0","36","NA","36","36","0","36","NA","36","NA","36","0","0","36","36","0","36","36","37","z","09/17/18 16:37:30","The main experiment item","yes","FIN__BA__M21__7%3A10%3A17.osexp","C:\Users\ERP Testing Room\Desktop\Joanna\morph21","no","mono","no","18","no","white","no","yes","1080","legacy","36","36","C:/Users/ERP Testing Room/Desktop/Joanna/morph21/subject-135.csv","xpyriment","Jazzy James","3.1.4","0","/","NA","NA","NA","NA","space","/","703","NA","NA","NA","NA","17103","703","2","legacy","1024","2","48000","-16","BA_m21","135","odd","NW_S_SIMP","OPPOSEMENT","1741","153982","152357","149281","18861","NA","NA","NA","NA","149272","152854","NA","151849","NA","151844","153974","1757","154182","NA","NA","152982","1741","1741","153374","151844","1741","152982","154182","morph21_Oliver/Morris","28","25040","37","yes","1280","8"
"400","73.6842105263","73.6842105263","685.078947368","685.078947368","black","no","xpyriment","legacy","legacy","0","206","NA","uniform","59184","1000","0.0168964585023","0","undefined","0","0","37","37","37","0","37","37","37","NA","37","37","0","37","NA","37","37","0","37","NA","37","NA","37","0","0","37","37","0","37","37","38","z","09/17/18 16:37:30","The main experiment item","yes","FIN__BA__M21__7%3A10%3A17.osexp","C:\Users\ERP Testing Room\Desktop\Joanna\morph21","no","mono","no","18","no","white","no","yes","1080","legacy","37","37","C:/Users/ERP Testing Room/Desktop/Joanna/morph21/subject-135.csv","xpyriment","Jazzy James","3.1.4","0","None","NA","NA","NA","NA","space","None","993","NA","NA","NA","NA","17103","993","2","legacy","1024","2","48000","-16","BA_m21","135","odd","NW_L_SIMP","BOGARY","1741","157082","155474","149281","18861","NA","NA","NA","NA","149272","155971","NA","154974","NA","154969","157076","1757","157482","NA","NA","156082","1741","1741","156474","154969","1741","156082","157482","morph21_Oliver/Morris","28","26033","38","yes","1280","2"
"400","74.358974359","74.358974359","687.179487179","687.179487179","black","no","xpyriment","legacy","legacy","0","208","NA","uniform","61458","1000","0.0162712746917","1","undefined","1","0","38","38","38","0","38","38","38","NA","38","38","0","38","NA","38","38","0","38","NA","38","NA","38","0","0","38","38","0","38","38","39","z","09/17/18 16:37:30","The main experiment item","yes","FIN__BA__M21__7%3A10%3A17.osexp","C:\Users\ERP Testing Room\Desktop\Joanna\morph21","no","mono","no","18","no","white","no","yes","1080","legacy","38","38","C:/Users/ERP Testing Room/Desktop/Joanna/morph21/subject-135.csv","xpyriment","Jazzy James","3.1.4","0","z","NA","NA","NA","NA","space","z","767","NA","NA","NA","NA","17103","767","2","legacy","1024","2","48000","-16","BA_m21","135","odd","FILL_NW","BALFS","1741","161874","158749","160366","18861","NA","NA","NA","NA","160357","159246","NA","158249","NA","158239","160357","1757","162274","NA","NA","159366","1741","1741","159757","158238","1741","159365","162274","morph21_Oliver/Morris","29","26800","39","yes","1280","2"
"350","75","75","687.925","687.925","black","no","xpyriment","legacy","legacy","0","202","NA","uniform","57440","1000","0.0174094707521","1","undefined","1","0","39","39","39","0","39","39","39","NA","39","39","0","39","NA","39","39","0","39","NA","39","NA","39","0","0","39","39","0","39","39","40","/","09/17/18 16:37:30","The main experiment item","yes","FIN__BA__M21__7%3A10%3A17.osexp","C:\Users\ERP Testing Room\Desktop\Joanna\morph21","no","mono","no","18","no","white","no","yes","1080","legacy","39","39","C:/Users/ERP Testing Room/Desktop/Joanna/morph21/subject-135.csv","xpyriment","Jazzy James","3.1.4","0","/","NA","NA","NA","NA","space","/","717","NA","NA","NA","NA","17103","717","2","legacy","1024","2","48000","-16","BA_m21","135","odd","CW_L","PARKING","1741","165191","163607","160366","18861","NA","NA","NA","NA","165186","164104","NA","163107","NA","163098","165186","1757","165541","NA","NA","164191","1741","1741","164591","163097","1741","164191","165541","morph21_Oliver/Morris","30","27517","40","yes","1280","25"
"400","75.6097560976","75.6097560976","694.682926829","694.682926829","black","no","xpyriment","legacy","legacy","0","205","NA","uniform","59908","1000","0.0166922614676","1","undefined","1","0","40","40","40","0","40","40","40","NA","40","40","0","40","NA","40","40","0","40","NA","40","NA","40","0","0","40","40","0","40","40","41","z","09/17/18 16:37:30","The main experiment item","yes","FIN__BA__M21__7%3A10%3A17.osexp","C:\Users\ERP Testing Room\Desktop\Joanna\morph21","no","mono","no","18","no","white","no","yes","1080","legacy","40","40","C:/Users/ERP Testing Room/Desktop/Joanna/morph21/subject-135.csv","xpyriment","Jazzy James","3.1.4","0","z","NA","NA","NA","NA","space","z","965","NA","NA","NA","NA","17103","965","2","legacy","1024","2","48000","-16","BA_m21","135","odd","NW_S_SIMP","RAMPIZE","1741","168409","166807","160366","18861","NA","NA","NA","NA","168404","167305","NA","166308","NA","166298","168404","1757","168809","NA","NA","167416","1741","1741","167808","166298","1741","167416","168809","morph21_Oliver/Morris","31","28482","41","yes","1280","6"
"350","76.1904761905","76.1904761905","698.023809524","698.023809524","black","no","xpyriment","legacy","legacy","0","208","NA","uniform","62474","1000","0.01600665877","1","undefined","1","0","41","41","41","0","41","41","41","NA","41","41","0","41","NA","41","41","0","41","NA","41","NA","41","0","0","41","41","0","41","41","42","z","09/17/18 16:37:30","The main experiment item","yes","FIN__BA__M21__7%3A10%3A17.osexp","C:\Users\ERP Testing Room\Desktop\Joanna\morph21","no","mono","no","18","no","white","no","yes","1080","legacy","41","41","C:/Users/ERP Testing Room/Desktop/Joanna/morph21/subject-135.csv","xpyriment","Jazzy James","3.1.4","0","z","NA","NA","NA","NA","space","z","835","NA","NA","NA","NA","17103","835","2","legacy","1024","2","48000","-16","BA_m21","135","odd","FILL_NW","DELP","1741","173159","170042","171650","18861","NA","NA","NA","NA","171644","170539","NA","169542","NA","169539","171644","1757","173509","NA","NA","170650","1741","1741","171042","169538","1741","170650","173509","morph21_Oliver/Morris","32","29317","42","yes","1280","14"
"200","76.7441860465","76.7441860465","701.604651163","701.604651163","black","no","xpyriment","legacy","legacy","0","203","NA","uniform","55018","1000","0.0181758697154","1","undefined","1","0","42","42","42","0","42","42","42","NA","42","42","0","42","NA","42","42","0","42","NA","42","NA","42","0","0","42","42","0","42","42","43","z","09/17/18 16:37:30","The main experiment item","yes","FIN__BA__M21__7%3A10%3A17.osexp","C:\Users\ERP Testing Room\Desktop\Joanna\morph21","no","mono","no","18","no","white","no","yes","1080","legacy","42","42","C:/Users/ERP Testing Room/Desktop/Joanna/morph21/subject-135.csv","xpyriment","Jazzy James","3.1.4","0","z","NA","NA","NA","NA","space","z","852","NA","NA","NA","NA","17103","852","2","legacy","1024","2","48000","-16","BA_m21","135","odd","NW_S_COMP","DUMBIDY","1741","176401","174784","171650","18861","NA","NA","NA","NA","176393","175281","NA","174284","NA","174276","176393","1757","176601","NA","NA","175401","1741","1741","175792","174276","1741","175401","176601","morph21_Oliver/Morris","33","30169","43","yes","1280","12"
"250","77.2727272727","77.2727272727","703.545454545","703.545454545","black","no","xpyriment","legacy","legacy","0","203","NA","uniform","70553","1000","0.0141737417261","1","undefined","1","0","43","43","43","0","43","43","43","NA","43","43","0","43","NA","43","43","0","43","NA","43","NA","43","0","0","43","43","0","43","43","44","z","09/17/18 16:37:30","The main experiment item","yes","FIN__BA__M21__7%3A10%3A17.osexp","C:\Users\ERP Testing Room\Desktop\Joanna\morph21","no","mono","no","18","no","white","no","yes","1080","legacy","43","43","C:/Users/ERP Testing Room/Desktop/Joanna/morph21/subject-135.csv","xpyriment","Jazzy James","3.1.4","0","z","NA","NA","NA","NA","space","z","787","NA","NA","NA","NA","17103","787","2","legacy","1024","2","48000","-16","BA_m21","135","odd","NW_S_COMP","TREASONIME","1741","179417","177801","171650","18861","NA","NA","NA","NA","179412","178298","NA","177301","NA","177290","179412","1757","179667","NA","NA","178417","1741","1741","178809","177290","1741","178417","179667","morph21_Oliver/Morris","34","30956","44","yes","1280","14"
"400","77.7777777778","77.7777777778","699.777777778","699.777777778","black","no","xpyriment","legacy","legacy","0","201","NA","uniform","66948","1000","0.0149369660035","1","undefined","1","0","44","44","44","0","44","44","44","NA","44","44","0","44","NA","44","44","0","44","NA","44","NA","44","0","0","44","44","0","44","44","45","/","09/17/18 16:37:30","The main experiment item","yes","FIN__BA__M21__7%3A10%3A17.osexp","C:\Users\ERP Testing Room\Desktop\Joanna\morph21","no","mono","no","18","no","white","no","yes","1080","legacy","44","44","C:/Users/ERP Testing Room/Desktop/Joanna/morph21/subject-135.csv","xpyriment","Jazzy James","3.1.4","0","/","NA","NA","NA","NA","space","/","534","NA","NA","NA","NA","17103","534","2","legacy","1024","2","48000","-16","BA_m21","135","odd","CW_S","WIDOWED","1741","184026","180917","182517","18861","NA","NA","NA","NA","182511","181415","NA","180417","NA","180411","182511","1757","184426","NA","NA","181518","1741","1741","181909","180411","1741","181518","184426","morph21_Oliver/Morris","35","31490","45","yes","1280","7"
"300","76.0869565217","76.0869565217","705.97826087","705.97826087","black","no","xpyriment","legacy","legacy","0","206","NA","uniform","52536","1000","0.0190345667733","0","undefined","0","0","45","45","45","0","45","45","45","NA","45","45","0","45","NA","45","45","0","45","NA","45","NA","45","0","0","45","45","0","45","45","46","z","09/17/18 16:37:30","The main experiment item","yes","FIN__BA__M21__7%3A10%3A17.osexp","C:\Users\ERP Testing Room\Desktop\Joanna\morph21","no","mono","no","18","no","white","no","yes","1080","legacy","45","45","C:/Users/ERP Testing Room/Desktop/Joanna/morph21/subject-135.csv","xpyriment","Jazzy James","3.1.4","0","/","NA","NA","NA","NA","space","/","985","NA","NA","NA","NA","17103","985","2","legacy","1024","2","48000","-16","BA_m21","135","odd","NW_L_SIMP","ELBOWISM","1741","187260","185677","182517","18861","NA","NA","NA","NA","182511","186174","NA","185176","NA","185168","187255","1757","187560","NA","NA","186260","1741","1741","186660","185168","1741","186260","187560","morph21_Oliver/Morris","35","32475","46","yes","1280","10"
"250","76.5957446809","76.5957446809","705.680851064","705.680851064","black","no","xpyriment","legacy","legacy","0","201","NA","uniform","63405","1000","0.0157716268433","1","undefined","1","0","46","46","46","0","46","46","46","NA","46","46","0","46","NA","46","46","0","46","NA","46","NA","46","0","0","46","46","0","46","46","47","/","09/17/18 16:37:30","The main experiment item","yes","FIN__BA__M21__7%3A10%3A17.osexp","C:\Users\ERP Testing Room\Desktop\Joanna\morph21","no","mono","no","18","no","white","no","yes","1080","legacy","46","46","C:/Users/ERP Testing Room/Desktop/Joanna/morph21/subject-135.csv","xpyriment","Jazzy James","3.1.4","0","/","NA","NA","NA","NA","space","/","692","NA","NA","NA","NA","17103","692","2","legacy","1024","2","48000","-16","BA_m21","135","odd","CW_S","NOTICEABLE","1741","190377","188794","182517","18861","NA","NA","NA","NA","190373","189291","NA","188294","NA","188284","190373","1757","190627","NA","NA","189385","1741","1741","189777","188284","1741","189385","190627","morph21_Oliver/Morris","36","33167","47","yes","1280","3"
"350","77.0833333333","77.0833333333","702.020833333","702.020833333","black","no","xpyriment","legacy","legacy","0","207","NA","uniform","67460","1000","0.0148235991699","1","undefined","1","0","47","47","47","0","47","47","47","NA","47","47","0","47","NA","47","47","0","47","NA","47","NA","47","0","0","47","47","0","47","47","48","/","09/17/18 16:37:30","The main experiment item","yes","FIN__BA__M21__7%3A10%3A17.osexp","C:\Users\ERP Testing Room\Desktop\Joanna\morph21","no","mono","no","18","no","white","no","yes","1080","legacy","47","47","C:/Users/ERP Testing Room/Desktop/Joanna/morph21/subject-135.csv","xpyriment","Jazzy James","3.1.4","0","/","NA","NA","NA","NA","space","/","530","NA","NA","NA","NA","17103","530","2","legacy","1024","2","48000","-16","BA_m21","135","odd","FILL_W","FOLLOW","1741","194919","191802","193411","18861","NA","NA","NA","NA","193403","192299","NA","191302","NA","191295","193403","1757","195269","NA","NA","192411","1741","1741","192802","191295","1741","192411","195269","morph21_Oliver/Morris","37","33697","48","yes","1280","17"
"250","77.5510204082","77.5510204082","699.551020408","699.551020408","black","no","xpyriment","legacy","legacy","0","201","NA","uniform","61832","1000","0.0161728554794","1","undefined","1","0","48","48","48","0","48","48","48","NA","48","48","0","48","NA","48","48","0","48","NA","48","NA","48","0","0","48","48","0","48","48","49","/","09/17/18 16:37:30","The main experiment item","yes","FIN__BA__M21__7%3A10%3A17.osexp","C:\Users\ERP Testing Room\Desktop\Joanna\morph21","no","mono","no","18","no","white","no","yes","1080","legacy","48","48","C:/Users/ERP Testing Room/Desktop/Joanna/morph21/subject-135.csv","xpyriment","Jazzy James","3.1.4","0","/","NA","NA","NA","NA","space","/","581","NA","NA","NA","NA","17103","581","2","legacy","1024","2","48000","-16","BA_m21","135","odd","CW_S","COSTLY","1741","198103","196502","193411","18861","NA","NA","NA","NA","198098","197000","NA","196003","NA","195993","198098","1757","198353","NA","NA","197103","1741","1741","197502","195993","1741","197102","198353","morph21_Oliver/Morris","38","34278","49","yes","1280","36"
"200","76","76","705.44","705.44","black","no","xpyriment","legacy","legacy","0","202","NA","uniform","53108","1000","0.0188295548693","0","undefined","0","0","49","49","49","0","49","49","49","NA","49","49","0","49","NA","49","49","0","49","NA","49","NA","49","0","0","49","49","0","49","49","50","/","09/17/18 16:37:30","The main experiment item","yes","FIN__BA__M21__7%3A10%3A17.osexp","C:\Users\ERP Testing Room\Desktop\Joanna\morph21","no","mono","no","18","no","white","no","yes","1080","legacy","49","49","C:/Users/ERP Testing Room/Desktop/Joanna/morph21/subject-135.csv","xpyriment","Jazzy James","3.1.4","0","None","NA","NA","NA","NA","space","None","994","NA","NA","NA","NA","17103","994","2","legacy","1024","2","48000","-16","BA_m21","135","odd","CW_L","BOOTLESS","1741","201144","199578","193411","18861","NA","NA","NA","NA","198098","200075","NA","199078","NA","199069","201138","1757","201345","NA","NA","200144","1741","1741","200536","199069","1741","200144","201345","morph21_Oliver/Morris","38","35272","50","yes","1280","32"
"400","76.4705882353","76.4705882353","706.117647059","706.117647059","black","no","xpyriment","legacy","legacy","0","202","NA","uniform","66240","1000","0.0150966183575","1","undefined","1","0","50","50","50","0","50","50","50","NA","50","50","0","50","NA","50","50","0","50","NA","50","NA","50","0","0","50","50","0","50","50","51","/","09/17/18 16:37:30","The main experiment item","yes","FIN__BA__M21__7%3A10%3A17.osexp","C:\Users\ERP Testing Room\Desktop\Joanna\morph21","no","mono","no","18","no","white","no","yes","1080","legacy","50","50","C:/Users/ERP Testing Room/Desktop/Joanna/morph21/subject-135.csv","xpyriment","Jazzy James","3.1.4","0","/","NA","NA","NA","NA","space","/","740","NA","NA","NA","NA","17103","740","2","legacy","1024","2","48000","-16","BA_m21","135","odd","CW_L","BLINDNESS","1741","205837","202703","204329","18861","NA","NA","NA","NA","204319","203200","NA","202203","NA","202197","204319","1757","206237","NA","NA","203329","1741","1741","203720","202196","1741","203329","206237","morph21_Oliver/Morris","39","36012","51","yes","1280","40"
"200","76.9230769231","76.9230769231","705.865384615","705.865384615","black","no","xpyriment","legacy","legacy","0","204","NA","uniform","70262","1000","0.01423244428","1","undefined","1","0","51","51","51","0","51","51","51","NA","51","51","0","51","NA","51","51","0","51","NA","51","NA","51","0","0","51","51","0","51","51","52","z","09/17/18 16:37:30","The main experiment item","yes","FIN__BA__M21__7%3A10%3A17.osexp","C:\Users\ERP Testing Room\Desktop\Joanna\morph21","no","mono","no","18","no","white","no","yes","1080","legacy","51","51","C:/Users/ERP Testing Room/Desktop/Joanna/morph21/subject-135.csv","xpyriment","Jazzy James","3.1.4","0","z","NA","NA","NA","NA","space","z","693","NA","NA","NA","NA","17103","693","2","legacy","1024","2","48000","-16","BA_m21","135","odd","NW_L_COMP","GASFIL","1741","209096","207512","204329","18861","NA","NA","NA","NA","209093","208009","NA","207012","NA","207006","209093","1757","209296","NA","NA","208104","1741","1741","208496","207006","1741","208104","209296","morph21_Oliver/Morris","40","36705","52","yes","1280","6"
"200","77.358490566","77.358490566","708.886792453","708.886792453","black","no","xpyriment","legacy","legacy","0","203","NA","uniform","63374","1000","0.0157793416859","1","undefined","1","0","52","52","52","0","52","52","52","NA","52","52","0","52","NA","52","52","0","52","NA","52","NA","52","0","0","52","52","0","52","52","53","z","09/17/18 16:37:30","The main experiment item","yes","FIN__BA__M21__7%3A10%3A17.osexp","C:\Users\ERP Testing Room\Desktop\Joanna\morph21","no","mono","no","18","no","white","no","yes","1080","legacy","52","52","C:/Users/ERP Testing Room/Desktop/Joanna/morph21/subject-135.csv","xpyriment","Jazzy James","3.1.4","0","z","NA","NA","NA","NA","space","z","866","NA","NA","NA","NA","17103","866","2","legacy","1024","2","48000","-16","BA_m21","135","odd","NW_S_COMP","MELTANGE","1741","212171","210587","204329","18861","NA","NA","NA","NA","212164","211085","NA","210087","NA","210078","212164","1757","212371","NA","NA","211171","1741","1741","211562","210078","1741","211171","212371","morph21_Oliver/Morris","41","37571","53","yes","1280","1"
"200","77.7777777778","77.7777777778","705.277777778","705.277777778","black","no","xpyriment","legacy","legacy","0","201","NA","uniform","81032","1000","0.0123408036331","1","undefined","1","0","53","53","53","0","53","53","53","NA","53","53","0","53","NA","53","53","0","53","NA","53","NA","53","0","0","53","53","0","53","53","54","/","09/17/18 16:37:30","The main experiment item","yes","FIN__BA__M21__7%3A10%3A17.osexp","C:\Users\ERP Testing Room\Desktop\Joanna\morph21","no","mono","no","18","no","white","no","yes","1080","legacy","53","53","C:/Users/ERP Testing Room/Desktop/Joanna/morph21/subject-135.csv","xpyriment","Jazzy James","3.1.4","0","/","NA","NA","NA","NA","space","/","514","NA","NA","NA","NA","17103","514","2","legacy","1024","2","48000","-16","BA_m21","135","odd","CW_S","ENJOYMENT","1741","216663","213562","215154","18861","NA","NA","NA","NA","215149","214060","NA","213063","NA","213052","215149","1757","216863","NA","NA","214154","1741","1741","214554","213052","1741","214154","216863","morph21_Oliver/Morris","42","38085","54","yes","1280","40"
"300","78.1818181818","78.1818181818","703.672727273","703.672727273","black","no","xpyriment","legacy","legacy","0","202","NA","uniform","69307","1000","0.014428557","1","undefined","1","0","54","54","54","0","54","54","54","NA","54","54","0","54","NA","54","54","0","54","NA","54","NA","54","0","0","54","54","0","54","54","55","/","09/17/18 16:37:30","The main experiment item","yes","FIN__BA__M21__7%3A10%3A17.osexp","C:\Users\ERP Testing Room\Desktop\Joanna\morph21","no","mono","no","18","no","white","no","yes","1080","legacy","54","54","C:/Users/ERP Testing Room/Desktop/Joanna/morph21/subject-135.csv","xpyriment","Jazzy James","3.1.4","0","/","NA","NA","NA","NA","space","/","617","NA","NA","NA","NA","17103","617","2","legacy","1024","2","48000","-16","BA_m21","135","odd","CW_L","COMPOSER","1741","219771","218204","215154","18861","NA","NA","NA","NA","219764","218701","NA","217704","NA","217692","219764","1757","220071","NA","NA","218771","1741","1741","219163","217692","1741","218771","220071","morph21_Oliver/Morris","43","38702","55","yes","1280","6"
"250","78.5714285714","78.5714285714","702.464285714","702.464285714","black","no","xpyriment","legacy","legacy","0","201","NA","uniform","71751","1000","0.0139370879848","1","undefined","1","0","55","55","55","0","55","55","55","NA","55","55","0","55","NA","55","55","0","55","NA","55","NA","55","0","0","55","55","0","55","55","56","/","09/17/18 16:37:30","The main experiment item","yes","FIN__BA__M21__7%3A10%3A17.osexp","C:\Users\ERP Testing Room\Desktop\Joanna\morph21","no","mono","no","18","no","white","no","yes","1080","legacy","55","55","C:/Users/ERP Testing Room/Desktop/Joanna/morph21/subject-135.csv","xpyriment","Jazzy James","3.1.4","0","/","NA","NA","NA","NA","space","/","636","NA","NA","NA","NA","17103","636","2","legacy","1024","2","48000","-16","BA_m21","135","odd","CW_S","MILDNESS","1741","222897","221289","215154","18861","NA","NA","NA","NA","222892","221786","NA","220789","NA","220778","222892","1757","223147","NA","NA","221897","1741","1741","222289","220778","1741","221897","223147","morph21_Oliver/Morris","44","39338","56","yes","1280","42"
"400","78.9473684211","78.9473684211","702.421052632","702.421052632","black","no","xpyriment","legacy","legacy","0","203","NA","uniform","74016","1000","0.0135105923044","1","undefined","1","0","56","56","56","0","56","56","56","NA","56","56","0","56","NA","56","56","0","56","NA","56","NA","56","0","0","56","56","0","56","56","57","z","09/17/18 16:37:30","The main experiment item","yes","FIN__BA__M21__7%3A10%3A17.osexp","C:\Users\ERP Testing Room\Desktop\Joanna\morph21","no","mono","no","18","no","white","no","yes","1080","legacy","56","56","C:/Users/ERP Testing Room/Desktop/Joanna/morph21/subject-135.csv","xpyriment","Jazzy James","3.1.4","0","z","NA","NA","NA","NA","space","z","700","NA","NA","NA","NA","17103","700","2","legacy","1024","2","48000","-16","BA_m21","135","odd","NW_S_COMP","ALTARIG","1741","227597","224489","226089","18861","NA","NA","NA","NA","226086","224986","NA","223989","NA","223983","226086","1757","227998","NA","NA","225089","1741","1741","225489","223983","1741","225089","227998","morph21_Oliver/Morris","45","40038","57","yes","1280","7"
"250","79.3103448276","79.3103448276","702.25862069","702.25862069","black","no","xpyriment","legacy","legacy","0","202","NA","uniform","74028","1000","0.0135084022262","1","undefined","1","0","57","57","57","0","57","57","57","NA","57","57","0","57","NA","57","57","0","57","NA","57","NA","57","0","0","57","57","0","57","57","58","/","09/17/18 16:37:30","The main experiment item","yes","FIN__BA__M21__7%3A10%3A17.osexp","C:\Users\ERP Testing Room\Desktop\Joanna\morph21","no","mono","no","18","no","white","no","yes","1080","legacy","57","57","C:/Users/ERP Testing Room/Desktop/Joanna/morph21/subject-135.csv","xpyriment","Jazzy James","3.1.4","0","/","NA","NA","NA","NA","space","/","693","NA","NA","NA","NA","17103","693","2","legacy","1024","2","48000","-16","BA_m21","135","odd","CW_L","CREAMY","1741","230848","229248","226089","18861","NA","NA","NA","NA","230838","229745","NA","228748","NA","228740","230838","1757","231098","NA","NA","229848","1741","1741","230239","228740","1741","229848","231098","morph21_Oliver/Morris","46","40731","58","yes","1280","49"
"250","79.6610169492","79.6610169492","700.13559322","700.13559322","black","no","xpyriment","legacy","legacy","0","207","NA","uniform","69939","1000","0.0142981741232","1","undefined","1","0","58","58","58","0","58","58","58","NA","58","58","0","58","NA","58","58","0","58","NA","58","NA","58","0","0","58","58","0","58","58","59","/","09/17/18 16:37:30","The main experiment item","yes","FIN__BA__M21__7%3A10%3A17.osexp","C:\Users\ERP Testing Room\Desktop\Joanna\morph21","no","mono","no","18","no","white","no","yes","1080","legacy","58","58","C:/Users/ERP Testing Room/Desktop/Joanna/morph21/subject-135.csv","xpyriment","Jazzy James","3.1.4","0","/","NA","NA","NA","NA","space","/","577","NA","NA","NA","NA","17103","577","2","legacy","1024","2","48000","-16","BA_m21","135","odd","FILL_W","SLIM","1741","233939","232348","226089","18861","NA","NA","NA","NA","233931","232845","NA","231848","NA","231839","233931","1757","234189","NA","NA","232939","1741","1741","233331","231839","1741","232939","234189","morph21_Oliver/Morris","47","41308","59","yes","1280","6"
"400","80","80","696.583333333","696.583333333","black","no","xpyriment","legacy","legacy","0","202","NA","uniform","75514","1000","0.0132425775353","1","undefined","1","0","59","59","59","0","59","59","59","NA","59","59","0","59","NA","59","59","0","59","NA","59","NA","59","0","0","59","59","0","59","59","60","/","09/17/18 16:37:30","The main experiment item","yes","FIN__BA__M21__7%3A10%3A17.osexp","C:\Users\ERP Testing Room\Desktop\Joanna\morph21","no","mono","no","18","no","white","no","yes","1080","legacy","59","59","C:/Users/ERP Testing Room/Desktop/Joanna/morph21/subject-135.csv","xpyriment","Jazzy James","3.1.4","0","/","NA","NA","NA","NA","space","/","487","NA","NA","NA","NA","17103","487","2","legacy","1024","2","48000","-16","BA_m21","135","odd","CW_L","CLEANER","1741","238491","235348","236981","18861","NA","NA","NA","NA","236975","235845","NA","234840","NA","234836","236975","1757","238891","NA","NA","235981","1741","1741","236373","234835","1741","235981","238891","morph21_Oliver/Morris","48","41795","60","yes","1280","15"
"300","80.3278688525","80.3278688525","691.836065574","691.836065574","black","no","xpyriment","legacy","legacy","0","207","NA","uniform","78595","1000","0.0127234556906","1","undefined","1","0","60","60","60","0","60","60","60","NA","60","60","0","60","NA","60","60","0","60","NA","60","NA","60","0","0","60","60","0","60","60","61","/","09/17/18 16:37:30","The main experiment item","yes","FIN__BA__M21__7%3A10%3A17.osexp","C:\Users\ERP Testing Room\Desktop\Joanna\morph21","no","mono","no","18","no","white","no","yes","1080","legacy","60","60","C:/Users/ERP Testing Room/Desktop/Joanna/morph21/subject-135.csv","xpyriment","Jazzy James","3.1.4","0","/","NA","NA","NA","NA","space","/","407","NA","NA","NA","NA","17103","407","2","legacy","1024","2","48000","-16","BA_m21","135","odd","FILL_W","BOX","1741","241766","240182","236981","18861","NA","NA","NA","NA","241761","240679","NA","239682","NA","239674","241761","1757","242066","NA","NA","240766","1741","1741","241166","239674","1741","240766","242066","morph21_Oliver/Morris","49","42202","61","yes","1280","42"
"400","80.6451612903","80.6451612903","687.370967742","687.370967742","black","no","xpyriment","legacy","legacy","0","207","NA","uniform","75685","1000","0.0132126577261","1","undefined","1","0","61","61","61","0","61","61","61","NA","61","61","0","61","NA","61","61","0","61","NA","61","NA","61","0","0","61","61","0","61","61","62","/","09/17/18 16:37:30","The main experiment item","yes","FIN__BA__M21__7%3A10%3A17.osexp","C:\Users\ERP Testing Room\Desktop\Joanna\morph21","no","mono","no","18","no","white","no","yes","1080","legacy","61","61","C:/Users/ERP Testing Room/Desktop/Joanna/morph21/subject-135.csv","xpyriment","Jazzy James","3.1.4","0","/","NA","NA","NA","NA","space","/","415","NA","NA","NA","NA","17103","415","2","legacy","1024","2","48000","-16","BA_m21","135","odd","FILL_W","DRUNK","1741","244958","243341","236981","18861","NA","NA","NA","NA","244955","243838","NA","242841","NA","242834","244955","1757","245358","NA","NA","243966","1741","1741","244358","242834","1741","243966","245358","morph21_Oliver/Morris","50","42617","62","yes","1280","19"
"400","80.9523809524","80.9523809524","690.26984127","690.26984127","black","no","xpyriment","legacy","legacy","0","208","NA","uniform","57443","1000","0.0174085615306","1","undefined","1","0","62","62","62","0","62","62","62","NA","62","62","0","62","NA","62","62","0","62","NA","62","NA","62","0","0","62","62","0","62","62","63","z","09/17/18 16:37:30","The main experiment item","yes","FIN__BA__M21__7%3A10%3A17.osexp","C:\Users\ERP Testing Room\Desktop\Joanna\morph21","no","mono","no","18","no","white","no","yes","1080","legacy","62","62","C:/Users/ERP Testing Room/Desktop/Joanna/morph21/subject-135.csv","xpyriment","Jazzy James","3.1.4","0","z","NA","NA","NA","NA","space","z","870","NA","NA","NA","NA","17103","870","2","legacy","1024","2","48000","-16","BA_m21","135","odd","FILL_NW","DROES","1741","249708","246574","248199","18861","NA","NA","NA","NA","248189","247071","NA","246074","NA","246066","248189","1757","250108","NA","NA","247199","1741","1741","247591","246066","1741","247199","250108","morph21_Oliver/Morris","51","43487","63","yes","1280","17"
"250","81.25","81.25","691.828125","691.828125","black","no","xpyriment","legacy","legacy","0","204","NA","uniform","66711","1000","0.014990031629","1","undefined","1","0","63","63","63","0","63","63","63","NA","63","63","0","63","NA","63","63","0","63","NA","63","NA","63","0","0","63","63","0","63","63","64","z","09/17/18 16:37:30","The main experiment item","yes","FIN__BA__M21__7%3A10%3A17.osexp","C:\Users\ERP Testing Room\Desktop\Joanna\morph21","no","mono","no","18","no","white","no","yes","1080","legacy","63","63","C:/Users/ERP Testing Room/Desktop/Joanna/morph21/subject-135.csv","xpyriment","Jazzy James","3.1.4","0","z","NA","NA","NA","NA","space","z","790","NA","NA","NA","NA","17103","790","2","legacy","1024","2","48000","-16","BA_m21","135","odd","NW_L_COMP","BREAKIDY","1741","252966","251383","248199","18861","NA","NA","NA","NA","252958","251880","NA","250883","NA","250877","252958","1757","253216","NA","NA","251966","1741","1741","252358","250876","1741","251966","253216","morph21_Oliver/Morris","52","44277","64","yes","1280","23"
"300","81.5384615385","81.5384615385","688.907692308","688.907692308","black","no","xpyriment","legacy","legacy","0","201","NA","uniform","69923","1000","0.0143014458762","1","undefined","1","0","64","64","64","0","64","64","64","NA","64","64","0","64","NA","64","64","0","64","NA","64","NA","64","0","0","64","64","0","64","64","65","/","09/17/18 16:37:30","The main experiment item","yes","FIN__BA__M21__7%3A10%3A17.osexp","C:\Users\ERP Testing Room\Desktop\Joanna\morph21","no","mono","no","18","no","white","no","yes","1080","legacy","64","64","C:/Users/ERP Testing Room/Desktop/Joanna/morph21/subject-135.csv","xpyriment","Jazzy James","3.1.4","0","/","NA","NA","NA","NA","space","/","502","NA","NA","NA","NA","17103","502","2","legacy","1024","2","48000","-16","BA_m21","135","odd","CW_S","DESTROYER","1741","255992","254391","248199","18861","NA","NA","NA","NA","255984","254889","NA","253891","NA","253887","255984","1757","256292","NA","NA","254991","1741","1741","255384","253887","1741","254991","256292","morph21_Oliver/Morris","53","44779","65","yes","1280","14"
"350","81.8181818182","81.8181818182","690.575757576","690.575757576","black","no","xpyriment","legacy","legacy","0","208","NA","uniform","59754","1000","0.0167352813201","1","undefined","1","0","65","65","65","0","65","65","65","NA","65","65","0","65","NA","65","65","0","65","NA","65","NA","65","0","0","65","65","0","65","65","66","z","09/17/18 16:37:30","The main experiment item","yes","FIN__BA__M21__7%3A10%3A17.osexp","C:\Users\ERP Testing Room\Desktop\Joanna\morph21","no","mono","no","18","no","white","no","yes","1080","legacy","65","65","C:/Users/ERP Testing Room/Desktop/Joanna/morph21/subject-135.csv","xpyriment","Jazzy James","3.1.4","0","z","NA","NA","NA","NA","space","z","799","NA","NA","NA","NA","17103","799","2","legacy","1024","2","48000","-16","BA_m21","135","odd","FILL_NW","BLANTH","1741","260643","257526","259134","18861","NA","NA","NA","NA","259124","258023","NA","257017","NA","257008","259124","1757","260993","NA","NA","258134","1741","1741","258526","257008","1741","258134","260993","morph21_Oliver/Morris","54","45578","66","yes","1280","3"
"350","80.5970149254","80.5970149254","695.119402985","695.119402985","black","no","xpyriment","legacy","legacy","0","202","NA","uniform","55441","1000","0.0180371926913","0","undefined","0","0","66","66","66","0","66","66","66","NA","66","66","0","66","NA","66","66","0","66","NA","66","NA","66","0","0","66","66","0","66","66","67","/","09/17/18 16:37:30","The main experiment item","yes","FIN__BA__M21__7%3A10%3A17.osexp","C:\Users\ERP Testing Room\Desktop\Joanna\morph21","no","mono","no","18","no","white","no","yes","1080","legacy","66","66","C:/Users/ERP Testing Room/Desktop/Joanna/morph21/subject-135.csv","xpyriment","Jazzy James","3.1.4","0","None","NA","NA","NA","NA","space","None","995","NA","NA","NA","NA","17103","995","2","legacy","1024","2","48000","-16","BA_m21","135","odd","CW_L","GUILELESS","1741","263909","262293","259134","18861","NA","NA","NA","NA","259124","262790","NA","261793","NA","261788","263904","1757","264259","NA","NA","262909","1741","1741","263309","261788","1741","262909","264259","morph21_Oliver/Morris","54","46573","67","yes","1280","31"
"400","80.8823529412","80.8823529412","693.691176471","693.691176471","black","no","xpyriment","legacy","legacy","0","202","NA","uniform","76569","1000","0.0130601157126","1","undefined","1","0","67","67","67","0","67","67","67","NA","67","67","0","67","NA","67","67","0","67","NA","67","NA","67","0","0","67","67","0","67","67","68","/","09/17/18 16:37:30","The main experiment item","yes","FIN__BA__M21__7%3A10%3A17.osexp","C:\Users\ERP Testing Room\Desktop\Joanna\morph21","no","mono","no","18","no","white","no","yes","1080","legacy","67","67","C:/Users/ERP Testing Room/Desktop/Joanna/morph21/subject-135.csv","xpyriment","Jazzy James","3.1.4","0","/","NA","NA","NA","NA","space","/","598","NA","NA","NA","NA","17103","598","2","legacy","1024","2","48000","-16","BA_m21","135","odd","CW_L","STYLISH","1741","267160","265568","259134","18861","NA","NA","NA","NA","267154","266065","NA","265068","NA","265058","267154","1757","267560","NA","NA","266159","1741","1741","266551","265058","1741","266159","267560","morph21_Oliver/Morris","55","47171","68","yes","1280","29"
"200","81.1594202899","81.1594202899","693.52173913","693.52173913","black","no","xpyriment","legacy","legacy","0","208","NA","uniform","68338","1000","0.0146331470046","1","undefined","1","0","68","68","68","0","68","68","68","NA","68","68","0","68","NA","68","68","0","68","NA","68","NA","68","0","0","68","68","0","68","68","69","z","09/17/18 16:37:30","The main experiment item","yes","FIN__BA__M21__7%3A10%3A17.osexp","C:\Users\ERP Testing Room\Desktop\Joanna\morph21","no","mono","no","18","no","white","no","yes","1080","legacy","68","68","C:/Users/ERP Testing Room/Desktop/Joanna/morph21/subject-135.csv","xpyriment","Jazzy James","3.1.4","0","z","NA","NA","NA","NA","space","z","682","NA","NA","NA","NA","17103","682","2","legacy","1024","2","48000","-16","BA_m21","135","odd","FILL_NW","PORDS","1741","271926","268818","270418","18861","NA","NA","NA","NA","270408","269315","NA","268318","NA","268307","270408","1757","272127","NA","NA","269418","1741","1741","269810","268307","1741","269418","272127","morph21_Oliver/Morris","56","47853","69","yes","1280","39"
"250","81.4285714286","81.4285714286","692.828571429","692.828571429","black","no","xpyriment","legacy","legacy","0","208","NA","uniform","73276","1000","0.013647033135","1","undefined","1","0","69","69","69","0","69","69","69","NA","69","69","0","69","NA","69","69","0","69","NA","69","NA","69","0","0","69","69","0","69","69","70","z","09/17/18 16:37:30","The main experiment item","yes","FIN__BA__M21__7%3A10%3A17.osexp","C:\Users\ERP Testing Room\Desktop\Joanna\morph21","no","mono","no","18","no","white","no","yes","1080","legacy","69","69","C:/Users/ERP Testing Room/Desktop/Joanna/morph21/subject-135.csv","xpyriment","Jazzy James","3.1.4","0","z","NA","NA","NA","NA","space","z","645","NA","NA","NA","NA","17103","645","2","legacy","1024","2","48000","-16","BA_m21","135","odd","FILL_NW","BUWL","1741","274944","273336","270418","18861","NA","NA","NA","NA","274939","273833","NA","272836","NA","272826","274939","1757","275194","NA","NA","273944","1741","1741","274344","272826","1741","273944","275194","morph21_Oliver/Morris","57","48498","70","yes","1280","9"
"200","81.6901408451","81.6901408451","690.704225352","690.704225352","black","no","xpyriment","legacy","legacy","0","207","NA","uniform","71458","1000","0.0139942343754","1","undefined","1","0","70","70","70","0","70","70","70","NA","70","70","0","70","NA","70","70","0","70","NA","70","NA","70","0","0","70","70","0","70","70","71","/","09/17/18 16:37:30","The main experiment item","yes","FIN__BA__M21__7%3A10%3A17.osexp","C:\Users\ERP Testing Room\Desktop\Joanna\morph21","no","mono","no","18","no","white","no","yes","1080","legacy","70","70","C:/Users/ERP Testing Room/Desktop/Joanna/morph21/subject-135.csv","xpyriment","Jazzy James","3.1.4","0","/","NA","NA","NA","NA","space","/","542","NA","NA","NA","NA","17103","542","2","legacy","1024","2","48000","-16","BA_m21","135","odd","FILL_W","FLESH","1741","278103","276519","270418","18861","NA","NA","NA","NA","278096","277016","NA","276019","NA","276014","278096","1757","278303","NA","NA","277103","1741","1741","277494","276014","1741","277103","278303","morph21_Oliver/Morris","58","49040","71","yes","1280","32"
"250","81.9444444444","81.9444444444","688.930555556","688.930555556","black","no","xpyriment","legacy","legacy","0","202","NA","uniform","78912","1000","0.0126723438767","1","undefined","1","0","71","71","71","0","71","71","71","NA","71","71","0","71","NA","71","71","0","71","NA","71","NA","71","0","0","71","71","0","71","71","72","/","09/17/18 16:37:30","The main experiment item","yes","FIN__BA__M21__7%3A10%3A17.osexp","C:\Users\ERP Testing Room\Desktop\Joanna\morph21","no","mono","no","18","no","white","no","yes","1080","legacy","71","71","C:/Users/ERP Testing Room/Desktop/Joanna/morph21/subject-135.csv","xpyriment","Jazzy James","3.1.4","0","/","NA","NA","NA","NA","space","/","563","NA","NA","NA","NA","17103","563","2","legacy","1024","2","48000","-16","BA_m21","135","odd","CW_L","PUSHER","1741","282695","279586","281186","18861","NA","NA","NA","NA","281177","280083","NA","279086","NA","279081","281177","1757","282945","NA","NA","280186","1741","1741","280578","279081","1741","280186","282945","morph21_Oliver/Morris","59","49603","72","yes","1280","13"
"250","82.1917808219","82.1917808219","688.657534247","688.657534247","black","no","xpyriment","legacy","legacy","0","203","NA","uniform","73598","1000","0.0135873257425","1","undefined","1","0","72","72","72","0","72","72","72","NA","72","72","0","72","NA","72","72","0","72","NA","72","NA","72","0","0","72","72","0","72","72","73","z","09/17/18 16:37:30","The main experiment item","yes","FIN__BA__M21__7%3A10%3A17.osexp","C:\Users\ERP Testing Room\Desktop\Joanna\morph21","no","mono","no","18","no","white","no","yes","1080","legacy","72","72","C:/Users/ERP Testing Room/Desktop/Joanna/morph21/subject-135.csv","xpyriment","Jazzy James","3.1.4","0","z","NA","NA","NA","NA","space","z","669","NA","NA","NA","NA","17103","669","2","legacy","1024","2","48000","-16","BA_m21","135","odd","NW_S_COMP","BRANCHEL","1741","285703","284103","281186","18861","NA","NA","NA","NA","285696","284600","NA","283603","NA","283599","285696","1757","285953","NA","NA","284703","1741","1741","285095","283599","1741","284703","285953","morph21_Oliver/Morris","60","50272","73","yes","1280","16"
"350","82.4324324324","82.4324324324","688.364864865","688.364864865","black","no","xpyriment","legacy","legacy","0","204","NA","uniform","73773","1000","0.0135550946823","1","undefined","1","0","73","73","73","0","73","73","73","NA","73","73","0","73","NA","73","73","0","73","NA","73","NA","73","0","0","73","73","0","73","73","74","z","09/17/18 16:37:30","The main experiment item","yes","FIN__BA__M21__7%3A10%3A17.osexp","C:\Users\ERP Testing Room\Desktop\Joanna\morph21","no","mono","no","18","no","white","no","yes","1080","legacy","73","73","C:/Users/ERP Testing Room/Desktop/Joanna/morph21/subject-135.csv","xpyriment","Jazzy James","3.1.4","0","z","NA","NA","NA","NA","space","z","667","NA","NA","NA","NA","17103","667","2","legacy","1024","2","48000","-16","BA_m21","135","odd","NW_L_COMP","AGREELA","1741","288753","287161","281186","18861","NA","NA","NA","NA","288743","287659","NA","286661","NA","286655","288743","1757","289103","NA","NA","287753","1741","1741","288145","286654","1741","287753","289103","morph21_Oliver/Morris","61","50939","74","yes","1280","24"
"300","81.3333333333","81.3333333333","692.453333333","692.453333333","black","no","xpyriment","legacy","legacy","0","205","NA","uniform","54084","1000","0.0184897566748","undefined","undefined","0","0","74","74","74","0","74","74","74","NA","74","74","0","74","NA","74","74","0","74","NA","74","NA","74","0","0","74","74","0","74","74","75","z","09/17/18 16:37:30","The main experiment item","yes","FIN__BA__M21__7%3A10%3A17.osexp","C:\Users\ERP Testing Room\Desktop\Joanna\morph21","no","mono","no","18","no","white","no","yes","1080","legacy","74","74","C:/Users/ERP Testing Room/Desktop/Joanna/morph21/subject-135.csv","xpyriment","Jazzy James","3.1.4","0","z","z","NA","NA","NA","space","None","0","0","NA","NA","NA","17103","995","2","legacy","1024","2","48000","-16","BA_m21","135","odd","NW_S_SIMP","HELMETOUS","1741","293588","290496","292079","18861","293896","NA","NA","NA","288743","290993","NA","289995","NA","289989","292074","1757","293898","NA","NA","291079","1741","1741","291479","289989","1741","291079","293888","morph21_Oliver/Morris","61","51934","75","yes","1280","14"
"350","81.5789473684","81.5789473684","692.421052632","692.421052632","black","no","xpyriment","legacy","legacy","0","207","NA","uniform","65395","1000","0.015291688967","1","undefined","1","0","75","75","75","0","75","75","75","NA","75","75","0","75","NA","75","75","0","75","NA","75","NA","75","0","0","75","75","0","75","75","76","/","09/17/18 16:37:30","The main experiment item","yes","FIN__BA__M21__7%3A10%3A17.osexp","C:\Users\ERP Testing Room\Desktop\Joanna\morph21","no","mono","no","18","no","white","no","yes","1080","legacy","75","75","C:/Users/ERP Testing Room/Desktop/Joanna/morph21/subject-135.csv","xpyriment","Jazzy James","3.1.4","0","/","z","NA","NA","NA","space","/","690","0","NA","NA","NA","17103","690","2","legacy","1024","2","48000","-16","BA_m21","135","odd","FILL_W","BRISK","1741","296771","295154","292079","18861","293896","NA","NA","NA","296767","295652","NA","294654","NA","294644","296767","1757","297121","NA","NA","295771","1741","1741","296171","294643","1741","295771","297121","morph21_Oliver/Morris","62","52624","76","yes","1280","8"
"200","81.8181818182","81.8181818182","689.675324675","689.675324675","black","no","xpyriment","legacy","legacy","0","202","NA","uniform","67779","1000","0.0147538323079","1","undefined","1","0","76","76","76","0","76","76","76","NA","76","76","0","76","NA","76","76","0","76","NA","76","NA","76","0","0","76","76","0","76","76","77","/","09/17/18 16:37:30","The main experiment item","yes","FIN__BA__M21__7%3A10%3A17.osexp","C:\Users\ERP Testing Room\Desktop\Joanna\morph21","no","mono","no","18","no","white","no","yes","1080","legacy","76","76","C:/Users/ERP Testing Room/Desktop/Joanna/morph21/subject-135.csv","xpyriment","Jazzy James","3.1.4","0","/","z","NA","NA","NA","space","/","481","0","NA","NA","NA","17103","481","2","legacy","1024","2","48000","-16","BA_m21","135","odd","CW_L","SHAMEFUL","1741","299988","298388","292079","18861","293896","NA","NA","NA","299978","298885","NA","297888","NA","297877","299978","1757","300188","NA","NA","298988","1741","1741","299380","297877","1741","298988","300188","morph21_Oliver/Morris","63","53105","77","yes","1280","19"
"250","82.0512820513","82.0512820513","687.769230769","687.769230769","black","no","xpyriment","legacy","legacy","0","207","NA","uniform","69791","1000","0.0143284950782","1","undefined","1","0","77","77","77","0","77","77","77","NA","77","77","0","77","NA","77","77","0","77","NA","77","NA","77","0","0","77","77","0","77","77","78","/","09/17/18 16:37:30","The main experiment item","yes","FIN__BA__M21__7%3A10%3A17.osexp","C:\Users\ERP Testing Room\Desktop\Joanna\morph21","no","mono","no","18","no","white","no","yes","1080","legacy","77","77","C:/Users/ERP Testing Room/Desktop/Joanna/morph21/subject-135.csv","xpyriment","Jazzy James","3.1.4","0","/","z","NA","NA","NA","space","/","541","0","NA","NA","NA","17103","541","2","legacy","1024","2","48000","-16","BA_m21","135","odd","FILL_W","SPLICE","1741","304572","301438","303063","18861","293896","NA","NA","NA","303060","301935","NA","300938","NA","300929","303060","1757","304822","NA","NA","302071","1741","1741","302463","300929","1741","302071","304822","morph21_Oliver/Morris","64","53646","78","yes","1280","22"
"200","82.2784810127","82.2784810127","685.924050633","685.924050633","black","no","xpyriment","legacy","legacy","0","201","NA","uniform","62068","1000","0.0161113617323","1","undefined","1","0","78","78","78","0","78","78","78","NA","78","78","0","78","NA","78","78","0","78","NA","78","NA","78","0","0","78","78","0","78","78","79","/","09/17/18 16:37:30","The main experiment item","yes","FIN__BA__M21__7%3A10%3A17.osexp","C:\Users\ERP Testing Room\Desktop\Joanna\morph21","no","mono","no","18","no","white","no","yes","1080","legacy","78","78","C:/Users/ERP Testing Room/Desktop/Joanna/morph21/subject-135.csv","xpyriment","Jazzy James","3.1.4","0","/","z","NA","NA","NA","space","/","542","0","NA","NA","NA","17103","542","2","legacy","1024","2","48000","-16","BA_m21","135","odd","CW_S","THRUSTER","1741","307622","306038","303063","18861","293896","NA","NA","NA","307616","306535","NA","305538","NA","305528","307616","1757","307822","NA","NA","306622","1741","1741","307013","305528","1741","306622","307822","morph21_Oliver/Morris","65","54188","79","yes","1280","24"
"250","82.5","82.5","682.975","682.975","black","no","xpyriment","legacy","legacy","0","207","NA","uniform","82434","1000","0.0121309168547","1","undefined","1","0","79","79","79","0","79","79","79","NA","79","79","0","79","NA","79","79","0","79","NA","79","NA","79","0","0","79","79","0","79","79","80","/","09/17/18 16:37:30","The main experiment item","yes","FIN__BA__M21__7%3A10%3A17.osexp","C:\Users\ERP Testing Room\Desktop\Joanna\morph21","no","mono","no","18","no","white","no","yes","1080","legacy","79","79","C:/Users/ERP Testing Room/Desktop/Joanna/morph21/subject-135.csv","xpyriment","Jazzy James","3.1.4","0","/","z","NA","NA","NA","space","/","450","0","NA","NA","NA","17103","450","2","legacy","1024","2","48000","-16","BA_m21","135","odd","FILL_W","STARVE","1741","310739","309123","303063","18861","293896","NA","NA","NA","310730","309620","NA","308623","NA","308613","310730","1757","310989","NA","NA","309739","1741","1741","310131","308613","1741","309739","310989","morph21_Oliver/Morris","66","54638","80","yes","1280","15"
"250","82.7160493827","82.7160493827","680.814814815","680.814814815","black","no","xpyriment","legacy","legacy","0","202","NA","uniform","77160","1000","0.0129600829445","1","undefined","1","0","80","80","80","0","80","80","80","NA","80","80","0","80","NA","80","80","0","80","NA","80","NA","80","0","0","80","80","0","80","80","81","/","09/17/18 16:37:30","The main experiment item","yes","FIN__BA__M21__7%3A10%3A17.osexp","C:\Users\ERP Testing Room\Desktop\Joanna\morph21","no","mono","no","18","no","white","no","yes","1080","legacy","80","80","C:/Users/ERP Testing Room/Desktop/Joanna/morph21/subject-135.csv","xpyriment","Jazzy James","3.1.4","0","/","z","NA","NA","NA","space","/","508","0","NA","NA","NA","17103","508","2","legacy","1024","2","48000","-16","BA_m21","135","odd","CW_L","DANCER","1741","315381","312281","313873","18861","293896","NA","NA","NA","313868","312778","NA","311781","NA","311776","313868","1757","315631","NA","NA","312873","1741","1741","313273","311776","1741","312873","315631","morph21_Oliver/Morris","67","55146","81","yes","1280","11"
"350","82.9268292683","82.9268292683","678.231707317","678.231707317","black","no","xpyriment","legacy","legacy","0","201","NA","uniform","82384","1000","0.0121382792775","1","undefined","1","0","81","81","81","0","81","81","81","NA","81","81","0","81","NA","81","81","0","81","NA","81","NA","81","0","0","81","81","0","81","81","82","/","09/17/18 16:37:30","The main experiment item","yes","FIN__BA__M21__7%3A10%3A17.osexp","C:\Users\ERP Testing Room\Desktop\Joanna\morph21","no","mono","no","18","no","white","no","yes","1080","legacy","81","81","C:/Users/ERP Testing Room/Desktop/Joanna/morph21/subject-135.csv","xpyriment","Jazzy James","3.1.4","0","/","z","NA","NA","NA","space","/","469","0","NA","NA","NA","17103","469","2","legacy","1024","2","48000","-16","BA_m21","135","odd","CW_S","NEATLY","1741","318440","316831","313873","18861","293896","NA","NA","NA","318431","317329","NA","316331","NA","316323","318431","1757","318790","NA","NA","317440","1741","1741","317831","316323","1741","317440","318790","morph21_Oliver/Morris","68","55615","82","yes","1280","33"
"250","83.1325301205","83.1325301205","679.662650602","679.662650602","black","no","xpyriment","legacy","legacy","0","206","NA","uniform","66360","1000","0.0150693188668","1","undefined","1","0","82","82","82","0","82","82","82","NA","82","82","0","82","NA","82","82","0","82","NA","82","NA","82","0","0","82","82","0","82","82","83","z","09/17/18 16:37:30","The main experiment item","yes","FIN__BA__M21__7%3A10%3A17.osexp","C:\Users\ERP Testing Room\Desktop\Joanna\morph21","no","mono","no","18","no","white","no","yes","1080","legacy","82","82","C:/Users/ERP Testing Room/Desktop/Joanna/morph21/subject-135.csv","xpyriment","Jazzy James","3.1.4","0","z","z","NA","NA","NA","space","z","797","0","NA","NA","NA","17103","797","2","legacy","1024","2","48000","-16","BA_m21","135","odd","NW_L_SIMP","BEARIST","1741","321615","320031","313873","18861","293896","NA","NA","NA","321609","320529","NA","319532","NA","319524","321609","1757","321865","NA","NA","320615","1741","1741","321007","319523","1741","320615","321865","morph21_Oliver/Morris","69","56412","83","yes","1280","25"
"350","83.3333333333","83.3333333333","677.714285714","677.714285714","black","no","xpyriment","legacy","legacy","0","202","NA","uniform","80852","1000","0.012368277841","1","undefined","1","0","83","83","83","0","83","83","83","NA","83","83","0","83","NA","83","83","0","83","NA","83","NA","83","0","0","83","83","0","83","83","84","/","09/17/18 16:37:30","The main experiment item","yes","FIN__BA__M21__7%3A10%3A17.osexp","C:\Users\ERP Testing Room\Desktop\Joanna\morph21","no","mono","no","18","no","white","no","yes","1080","legacy","83","83","C:/Users/ERP Testing Room/Desktop/Joanna/morph21/subject-135.csv","xpyriment","Jazzy James","3.1.4","0","/","z","NA","NA","NA","space","/","516","0","NA","NA","NA","17103","516","2","legacy","1024","2","48000","-16","BA_m21","135","odd","CW_L","SWIMMER","1741","326141","323040","324632","18861","293896","NA","NA","NA","324622","323537","NA","322540","NA","322535","324622","1757","326491","NA","NA","323632","1741","1741","324023","322535","1741","323632","326491","morph21_Oliver/Morris","70","56928","84","yes","1280","5"
"250","83.5294117647","83.5294117647","679.411764706","679.411764706","black","no","xpyriment","legacy","legacy","0","205","NA","uniform","66967","1000","0.0149327280601","1","undefined","1","0","84","84","84","0","84","84","84","NA","84","84","0","84","NA","84","84","0","84","NA","84","NA","84","0","0","84","84","0","84","84","85","z","09/17/18 16:37:30","The main experiment item","yes","FIN__BA__M21__7%3A10%3A17.osexp","C:\Users\ERP Testing Room\Desktop\Joanna\morph21","no","mono","no","18","no","white","no","yes","1080","legacy","84","84","C:/Users/ERP Testing Room/Desktop/Joanna/morph21/subject-135.csv","xpyriment","Jazzy James","3.1.4","0","z","z","NA","NA","NA","space","z","822","0","NA","NA","NA","17103","822","2","legacy","1024","2","48000","-16","BA_m21","135","odd","NW_S_SIMP","ZOOMFUL","1741","329383","327766","324632","18861","293896","NA","NA","NA","329375","328263","NA","327266","NA","327261","329375","1757","329633","NA","NA","328383","1741","1741","328775","327261","1741","328383","329633","morph21_Oliver/Morris","71","57750","85","yes","1280","19"
"250","83.7209302326","83.7209302326","677.104651163","677.104651163","black","no","xpyriment","legacy","legacy","0","201","NA","uniform","67499","1000","0.0148150342968","1","undefined","1","0","85","85","85","0","85","85","85","NA","85","85","0","85","NA","85","85","0","85","NA","85","NA","85","0","0","85","85","0","85","85","86","/","09/17/18 16:37:30","The main experiment item","yes","FIN__BA__M21__7%3A10%3A17.osexp","C:\Users\ERP Testing Room\Desktop\Joanna\morph21","no","mono","no","18","no","white","no","yes","1080","legacy","85","85","C:/Users/ERP Testing Room/Desktop/Joanna/morph21/subject-135.csv","xpyriment","Jazzy James","3.1.4","0","/","z","NA","NA","NA","space","/","481","0","NA","NA","NA","17103","481","2","legacy","1024","2","48000","-16","BA_m21","135","odd","CW_S","PLANNER","1741","332508","330900","324632","18861","293896","NA","NA","NA","332503","331397","NA","330400","NA","330390","332503","1757","332758","NA","NA","331508","1741","1741","331908","330390","1741","331508","332758","morph21_Oliver/Morris","72","58231","86","yes","1280","22"
"400","83.908045977","83.908045977","676.011494253","676.011494253","black","no","xpyriment","legacy","legacy","0","208","NA","uniform","71240","1000","0.0140370578327","1","undefined","1","0","86","86","86","0","86","86","86","NA","86","86","0","86","NA","86","86","0","86","NA","86","NA","86","0","0","86","86","0","86","86","87","z","09/17/18 16:37:30","The main experiment item","yes","FIN__BA__M21__7%3A10%3A17.osexp","C:\Users\ERP Testing Room\Desktop\Joanna\morph21","no","mono","no","18","no","white","no","yes","1080","legacy","86","86","C:/Users/ERP Testing Room/Desktop/Joanna/morph21/subject-135.csv","xpyriment","Jazzy James","3.1.4","0","z","z","NA","NA","NA","space","z","582","0","NA","NA","NA","17103","582","2","legacy","1024","2","48000","-16","BA_m21","135","odd","FILL_NW","BUTE","1741","337075","333983","335567","18861","293896","NA","NA","NA","335559","334480","NA","333483","NA","333471","335559","1757","337475","NA","NA","334567","1741","1741","334958","333471","1741","334567","337475","morph21_Oliver/Morris","73","58813","87","yes","1280","5"
"250","84.0909090909","84.0909090909","675.795454545","675.795454545","black","no","xpyriment","legacy","legacy","0","208","NA","uniform","60706","1000","0.016472836293","1","undefined","1","0","87","87","87","0","87","87","87","NA","87","87","0","87","NA","87","87","0","87","NA","87","NA","87","0","0","87","87","0","87","87","88","z","09/17/18 16:37:30","The main experiment item","yes","FIN__BA__M21__7%3A10%3A17.osexp","C:\Users\ERP Testing Room\Desktop\Joanna\morph21","no","mono","no","18","no","white","no","yes","1080","legacy","87","87","C:/Users/ERP Testing Room/Desktop/Joanna/morph21/subject-135.csv","xpyriment","Jazzy James","3.1.4","0","z","z","NA","NA","NA","space","z","657","0","NA","NA","NA","17103","657","2","legacy","1024","2","48000","-16","BA_m21","135","odd","FILL_NW","PLAODS","1741","340275","338692","335567","18861","293896","NA","NA","NA","340269","339189","NA","338192","NA","338184","340269","1757","340525","NA","NA","339275","1741","1741","339667","338184","1741","339275","340525","morph21_Oliver/Morris","74","59470","88","yes","1280","37"
"200","84.2696629213","84.2696629213","675.337078652","675.337078652","black","no","xpyriment","legacy","legacy","0","203","NA","uniform","71280","1000","0.0140291806958","1","undefined","1","0","88","88","88","0","88","88","88","NA","88","88","0","88","NA","88","88","0","88","NA","88","NA","88","0","0","88","88","0","88","88","89","z","09/17/18 16:37:30","The main experiment item","yes","FIN__BA__M21__7%3A10%3A17.osexp","C:\Users\ERP Testing Room\Desktop\Joanna\morph21","no","mono","no","18","no","white","no","yes","1080","legacy","88","88","C:/Users/ERP Testing Room/Desktop/Joanna/morph21/subject-135.csv","xpyriment","Jazzy James","3.1.4","0","z","z","NA","NA","NA","space","z","635","0","NA","NA","NA","17103","635","2","legacy","1024","2","48000","-16","BA_m21","135","odd","NW_S_COMP","HAPPENANGE","1741","343451","341842","335567","18861","293896","NA","NA","NA","343442","342339","NA","341342","NA","341335","343442","1757","343651","NA","NA","342450","1741","1741","342843","341334","1741","342450","343651","morph21_Oliver/Morris","75","60105","89","yes","1280","2"
"200","84.4444444444","84.4444444444","674.666666667","674.666666667","black","no","xpyriment","legacy","legacy","0","203","NA","uniform","66289","1000","0.0150854591259","1","undefined","1","0","89","89","89","0","89","89","89","NA","89","89","0","89","NA","89","89","0","89","NA","89","NA","89","0","0","89","89","0","89","89","90","z","09/17/18 16:37:30","The main experiment item","yes","FIN__BA__M21__7%3A10%3A17.osexp","C:\Users\ERP Testing Room\Desktop\Joanna\morph21","no","mono","no","18","no","white","no","yes","1080","legacy","89","89","C:/Users/ERP Testing Room/Desktop/Joanna/morph21/subject-135.csv","xpyriment","Jazzy James","3.1.4","0","z","z","NA","NA","NA","space","z","615","0","NA","NA","NA","17103","615","2","legacy","1024","2","48000","-16","BA_m21","135","odd","NW_S_COMP","ANTILM","1741","348018","344901","346510","18861","293896","NA","NA","NA","346506","345398","NA","344401","NA","344397","346506","1757","348218","NA","NA","345518","1741","1741","345910","344397","1741","345518","348218","morph21_Oliver/Morris","76","60720","90","yes","1280","8"
"350","84.6153846154","84.6153846154","673.945054945","673.945054945","black","no","xpyriment","legacy","legacy","0","203","NA","uniform","63913","1000","0.0156462691471","1","undefined","1","0","90","90","90","0","90","90","90","NA","90","90","0","90","NA","90","90","0","90","NA","90","NA","90","0","0","90","90","0","90","90","91","z","09/17/18 16:37:30","The main experiment item","yes","FIN__BA__M21__7%3A10%3A17.osexp","C:\Users\ERP Testing Room\Desktop\Joanna\morph21","no","mono","no","18","no","white","no","yes","1080","legacy","90","90","C:/Users/ERP Testing Room/Desktop/Joanna/morph21/subject-135.csv","xpyriment","Jazzy James","3.1.4","0","z","z","NA","NA","NA","space","z","609","0","NA","NA","NA","17103","609","2","legacy","1024","2","48000","-16","BA_m21","135","odd","NW_S_COMP","FIENDILM","1741","351060","349477","346510","18861","293896","NA","NA","NA","351054","349974","NA","348977","NA","348971","351054","1757","351410","NA","NA","350060","1741","1741","350452","348971","1741","350060","351410","morph21_Oliver/Morris","77","61329","91","yes","1280","24"
