"ITI","acc","accuracy","average_response_time","avg_rt","background","bidi","canvas_backend","clock_backend","color_backend","compensation","cond_trig","condtrigtime","coordinates","coroutines_cycles","coroutines_duration","coroutines_mean_cycle_duration","correct","correct_instructions_1","correct_new_keyboard_response_1","count_AB_m21","count_ITI","count_blank_screen","count_blink_screen","count_block1","count_break1","count_break2","count_break3_1","count_canvas","count_correct_trigger","count_def_chain","count_end_screen","count_fixation_1","count_getting_started","count_inc_counter","count_incorrect_trigger","count_instructions_1","count_logger","count_logscript","count_new_coroutines","count_new_inline_script","count_new_keyboard_response_1","count_reset_counter_prep","count_reset_counter_run","count_responsescreen","count_sequence","count_start_trigger","count_target_present","count_word_trigger","counter","cresp","datetime","description","disable_garbage_collection","experiment_file","experiment_path","font_bold","font_family","font_italic","font_size","font_underline","foreground","form_clicks","fullscreen","height","keyboard_backend","live_row","live_row_block1","logfile","mouse_backend","opensesame_codename","opensesame_version","repeat_cycle","response","response_break1","response_break2","response_break3_1","response_end_screen","response_instructions_1","response_new_keyboard_response_1","response_time","response_time_break1","response_time_break2","response_time_break3_1","response_time_end_screen","response_time_instructions_1","response_time_new_keyboard_response_1","round_decimals","sampler_backend","sound_buf_size","sound_channels","sound_freq","sound_sample_size","start","subject_nr","subject_parity","targ_type","target","time_AB_m21","time_ITI","time_blank_screen","time_blink_screen","time_block1","time_break1","time_break2","time_break3_1","time_canvas","time_correct_trigger","time_def_chain","time_end_screen","time_fixation_1","time_getting_started","time_inc_counter","time_incorrect_trigger","time_instructions_1","time_logger","time_logscript","time_new_inline_script","time_new_keyboard_response_1","time_reset_counter_prep","time_reset_counter_run","time_responsescreen","time_sequence","time_start_trigger","time_target_present","time_word_trigger","title","total_correct","total_response_time","total_responses","uniform_coordinates","width","word_trig"
"350","0","0","993","993","black","no","xpyriment","legacy","legacy","0","208","NA","uniform","56223","1000","0.0177863152091","0","undefined","0","0","0","0","0","0","0","0","0","NA","0","0","0","0","NA","0","0","0","0","NA","0","NA","0","0","0","0","0","0","0","0","1","z","10/17/18 16:18:11","The main experiment item","yes","FIN__AB__M21__7%3A10%3A17.osexp","C:\Users\ERP Testing Room\Desktop\Joanna\morph21","no","mono","no","18","no","white","no","yes","1080","legacy","0","0","C:/Users/ERP Testing Room/Desktop/Joanna/morph21/subject-141.csv","xpyriment","Jazzy James","3.1.4","0","None","NA","NA","NA","NA","space","None","993","NA","NA","NA","NA","126984","993","2","legacy","1024","2","48000","-16","AB_m21","141","odd","FILL_NW","DARF","2353","132286","130678","NA","129357","NA","NA","NA","NA","NA","131175","NA","130175","NA","130099","132279","2372","132636","NA","NA","131286","2353","2353","131678","130099","2353","131286","132636","morph21_Oliver/Morris","0","993","1","yes","1280","10"
"300","0","0","980.5","980.5","black","no","xpyriment","legacy","legacy","0","205","NA","uniform","61730","1000","0.016199578811","0","undefined","0","0","1","1","1","0","1","1","1","NA","1","1","0","1","NA","1","1","0","1","NA","1","NA","1","0","0","1","1","0","1","1","2","z","10/17/18 16:18:11","The main experiment item","yes","FIN__AB__M21__7%3A10%3A17.osexp","C:\Users\ERP Testing Room\Desktop\Joanna\morph21","no","mono","no","18","no","white","no","yes","1080","legacy","1","1","C:/Users/ERP Testing Room/Desktop/Joanna/morph21/subject-141.csv","xpyriment","Jazzy James","3.1.4","0","/","NA","NA","NA","NA","space","/","968","NA","NA","NA","NA","126984","968","2","legacy","1024","2","48000","-16","AB_m21","141","odd","NW_S_SIMP","FEVERIME","2353","135461","133853","NA","129357","NA","NA","NA","NA","NA","134350","NA","133353","NA","133350","135454","2372","135761","NA","NA","134461","2353","2353","134853","133350","2353","134461","135761","morph21_Oliver/Morris","0","1961","2","yes","1280","24"
"400","0","0","984","984","black","no","xpyriment","legacy","legacy","0","203","NA","uniform","53919","1000","0.0185463380256","0","undefined","0","0","2","2","2","0","2","2","2","NA","2","2","0","2","NA","2","2","0","2","NA","2","NA","2","0","0","2","2","0","2","2","3","z","10/17/18 16:18:11","The main experiment item","yes","FIN__AB__M21__7%3A10%3A17.osexp","C:\Users\ERP Testing Room\Desktop\Joanna\morph21","no","mono","no","18","no","white","no","yes","1080","legacy","2","2","C:/Users/ERP Testing Room/Desktop/Joanna/morph21/subject-141.csv","xpyriment","Jazzy James","3.1.4","0","None","NA","NA","NA","NA","space","None","991","NA","NA","NA","NA","126984","991","2","legacy","1024","2","48000","-16","AB_m21","141","odd","NW_S_COMP","ALTARIC","2353","140145","137028","138636","129357","NA","NA","NA","NA","NA","137525","NA","136528","NA","136519","138627","2372","140545","NA","NA","137636","2353","2353","138028","136519","2353","137636","140545","morph21_Oliver/Morris","0","2952","3","yes","1280","7"
"350","0","0","987","987","black","no","xpyriment","legacy","legacy","0","208","NA","uniform","62029","1000","0.0161214915604","0","undefined","0","0","3","3","3","0","3","3","3","NA","3","3","0","3","NA","3","3","0","3","NA","3","NA","3","0","0","3","3","0","3","3","4","z","10/17/18 16:18:11","The main experiment item","yes","FIN__AB__M21__7%3A10%3A17.osexp","C:\Users\ERP Testing Room\Desktop\Joanna\morph21","no","mono","no","18","no","white","no","yes","1080","legacy","3","3","C:/Users/ERP Testing Room/Desktop/Joanna/morph21/subject-141.csv","xpyriment","Jazzy James","3.1.4","0","None","NA","NA","NA","NA","space","None","996","NA","NA","NA","NA","126984","996","2","legacy","1024","2","48000","-16","AB_m21","141","odd","FILL_NW","DASP","2353","143361","141753","138636","129357","NA","NA","NA","NA","NA","142250","NA","141253","NA","141247","143358","2372","143712","NA","NA","142361","2353","2353","142761","141247","2353","142361","143712","morph21_Oliver/Morris","0","3948","4","yes","1280","13"
"200","20","20","915.6","915.6","black","no","xpyriment","legacy","legacy","0","201","NA","uniform","73074","1000","0.0136847579166","1","undefined","1","0","4","4","4","0","4","4","4","NA","4","4","0","4","NA","4","4","0","4","NA","4","NA","4","0","0","4","4","0","4","4","5","/","10/17/18 16:18:11","The main experiment item","yes","FIN__AB__M21__7%3A10%3A17.osexp","C:\Users\ERP Testing Room\Desktop\Joanna\morph21","no","mono","no","18","no","white","no","yes","1080","legacy","4","4","C:/Users/ERP Testing Room/Desktop/Joanna/morph21/subject-141.csv","xpyriment","Jazzy James","3.1.4","0","/","NA","NA","NA","NA","space","/","630","NA","NA","NA","NA","126984","630","2","legacy","1024","2","48000","-16","AB_m21","141","odd","CW_S","LOCALLY","2353","146478","144878","138636","129357","NA","NA","NA","NA","146474","145375","NA","144378","NA","144375","146474","2372","146678","NA","NA","145478","2353","2353","145878","144375","2353","145478","146678","morph21_Oliver/Morris","1","4578","5","yes","1280","37"
"400","16.6666666667","16.6666666667","928.5","928.5","black","no","xpyriment","legacy","legacy","0","204","NA","uniform","61238","1000","0.0163297299063","0","undefined","0","0","5","5","5","0","5","5","5","NA","5","5","0","5","NA","5","5","0","5","NA","5","NA","5","0","0","5","5","0","5","5","6","z","10/17/18 16:18:11","The main experiment item","yes","FIN__AB__M21__7%3A10%3A17.osexp","C:\Users\ERP Testing Room\Desktop\Joanna\morph21","no","mono","no","18","no","white","no","yes","1080","legacy","5","5","C:/Users/ERP Testing Room/Desktop/Joanna/morph21/subject-141.csv","xpyriment","Jazzy James","3.1.4","0","None","NA","NA","NA","NA","space","None","993","NA","NA","NA","NA","126984","993","2","legacy","1024","2","48000","-16","AB_m21","141","odd","NW_L_COMP","RIPENCE","2353","150971","147871","149463","129357","NA","NA","NA","NA","146474","148368","NA","147371","NA","147364","149457","2372","151371","NA","NA","148463","2353","2353","148854","147364","2353","148462","151371","morph21_Oliver/Morris","1","5571","6","yes","1280","4"
"400","28.5714285714","28.5714285714","906.714285714","906.714285714","black","no","xpyriment","legacy","legacy","0","201","NA","uniform","70129","1000","0.0142594361819","1","undefined","1","0","6","6","6","0","6","6","6","NA","6","6","0","6","NA","6","6","0","6","NA","6","NA","6","0","0","6","6","0","6","6","7","/","10/17/18 16:18:11","The main experiment item","yes","FIN__AB__M21__7%3A10%3A17.osexp","C:\Users\ERP Testing Room\Desktop\Joanna\morph21","no","mono","no","18","no","white","no","yes","1080","legacy","6","6","C:/Users/ERP Testing Room/Desktop/Joanna/morph21/subject-141.csv","xpyriment","Jazzy James","3.1.4","0","/","NA","NA","NA","NA","space","/","776","NA","NA","NA","NA","126984","776","2","legacy","1024","2","48000","-16","AB_m21","141","odd","CW_S","DIETARY","2353","154213","152629","149463","129357","NA","NA","NA","NA","154208","153127","NA","152129","NA","152121","154208","2372","154613","NA","NA","153213","2353","2353","153613","152121","2353","153213","154613","morph21_Oliver/Morris","2","6347","7","yes","1280","6"
"200","37.5","37.5","868.5","868.5","black","no","xpyriment","legacy","legacy","0","202","NA","uniform","66704","1000","0.0149916047014","1","undefined","1","0","7","7","7","0","7","7","7","NA","7","7","0","7","NA","7","7","0","7","NA","7","NA","7","0","0","7","7","0","7","7","8","/","10/17/18 16:18:11","The main experiment item","yes","FIN__AB__M21__7%3A10%3A17.osexp","C:\Users\ERP Testing Room\Desktop\Joanna\morph21","no","mono","no","18","no","white","no","yes","1080","legacy","7","7","C:/Users/ERP Testing Room/Desktop/Joanna/morph21/subject-141.csv","xpyriment","Jazzy James","3.1.4","0","/","NA","NA","NA","NA","space","/","601","NA","NA","NA","NA","126984","601","2","legacy","1024","2","48000","-16","AB_m21","141","odd","CW_L","SHAMEFUL","2353","157396","155813","149463","129357","NA","NA","NA","NA","157386","156310","NA","155313","NA","155307","157386","2372","157596","NA","NA","156396","2353","2353","156788","155307","2353","156396","157596","morph21_Oliver/Morris","3","6948","8","yes","1280","19"
"350","44.4444444444","44.4444444444","862.222222222","862.222222222","black","no","xpyriment","legacy","legacy","0","202","NA","uniform","60239","1000","0.0166005411776","1","undefined","1","0","8","8","8","0","8","8","8","NA","8","8","0","8","NA","8","8","0","8","NA","8","NA","8","0","0","8","8","0","8","8","9","/","10/17/18 16:18:11","The main experiment item","yes","FIN__AB__M21__7%3A10%3A17.osexp","C:\Users\ERP Testing Room\Desktop\Joanna\morph21","no","mono","no","18","no","white","no","yes","1080","legacy","8","8","C:/Users/ERP Testing Room/Desktop/Joanna/morph21/subject-141.csv","xpyriment","Jazzy James","3.1.4","0","/","NA","NA","NA","NA","space","/","812","NA","NA","NA","NA","126984","812","2","legacy","1024","2","48000","-16","AB_m21","141","odd","CW_L","PUNCHER","2353","162022","158896","160513","129357","NA","NA","NA","NA","160511","159393","NA","158396","NA","158388","160511","2372","162372","NA","NA","159521","2353","2353","159913","158388","2353","159521","162372","morph21_Oliver/Morris","4","7760","9","yes","1280","1"
"400","40","40","875.4","875.4","black","no","xpyriment","legacy","legacy","0","208","NA","uniform","53008","1000","0.0188650769695","0","undefined","0","0","9","9","9","0","9","9","9","NA","9","9","0","9","NA","9","9","0","9","NA","9","NA","9","0","0","9","9","0","9","9","10","z","10/17/18 16:18:11","The main experiment item","yes","FIN__AB__M21__7%3A10%3A17.osexp","C:\Users\ERP Testing Room\Desktop\Joanna\morph21","no","mono","no","18","no","white","no","yes","1080","legacy","9","9","C:/Users/ERP Testing Room/Desktop/Joanna/morph21/subject-141.csv","xpyriment","Jazzy James","3.1.4","0","None","NA","NA","NA","NA","space","None","994","NA","NA","NA","NA","126984","994","2","legacy","1024","2","48000","-16","AB_m21","141","odd","FILL_NW","BORMS","2353","165306","163672","160513","129357","NA","NA","NA","NA","160511","164169","NA","163172","NA","163165","165299","2372","165706","NA","NA","164305","2353","2353","164698","163164","2353","164305","165706","morph21_Oliver/Morris","4","8754","10","yes","1280","50"
"250","45.4545454545","45.4545454545","882.545454545","882.545454545","black","no","xpyriment","legacy","legacy","0","201","NA","uniform","56933","1000","0.017564505647","1","undefined","1","0","10","10","10","0","10","10","10","NA","10","10","0","10","NA","10","10","0","10","NA","10","NA","10","0","0","10","10","0","10","10","11","/","10/17/18 16:18:11","The main experiment item","yes","FIN__AB__M21__7%3A10%3A17.osexp","C:\Users\ERP Testing Room\Desktop\Joanna\morph21","no","mono","no","18","no","white","no","yes","1080","legacy","10","10","C:/Users/ERP Testing Room/Desktop/Joanna/morph21/subject-141.csv","xpyriment","Jazzy James","3.1.4","0","/","NA","NA","NA","NA","space","/","954","NA","NA","NA","NA","126984","954","2","legacy","1024","2","48000","-16","AB_m21","141","odd","CW_S","MILDNESS","2353","168523","166923","160513","129357","NA","NA","NA","NA","168516","167420","NA","166423","NA","166414","168516","2372","168773","NA","NA","167523","2353","2353","167914","166414","2353","167523","168773","morph21_Oliver/Morris","5","9708","11","yes","1280","42"
"250","41.6666666667","41.6666666667","891.416666667","891.416666667","black","no","xpyriment","legacy","legacy","0","201","NA","uniform","58264","1000","0.0171632568996","0","undefined","0","0","11","11","11","0","11","11","11","NA","11","11","0","11","NA","11","11","0","11","NA","11","NA","11","0","0","11","11","0","11","11","12","/","10/17/18 16:18:11","The main experiment item","yes","FIN__AB__M21__7%3A10%3A17.osexp","C:\Users\ERP Testing Room\Desktop\Joanna\morph21","no","mono","no","18","no","white","no","yes","1080","legacy","11","11","C:/Users/ERP Testing Room/Desktop/Joanna/morph21/subject-141.csv","xpyriment","Jazzy James","3.1.4","0","None","NA","NA","NA","NA","space","None","989","NA","NA","NA","NA","126984","989","2","legacy","1024","2","48000","-16","AB_m21","141","odd","CW_S","TOSSING","2353","173156","170048","171648","129357","NA","NA","NA","NA","168516","170545","NA","169548","NA","169543","171645","2372","173407","NA","NA","170656","2353","2353","171048","169543","2353","170656","173407","morph21_Oliver/Morris","5","10697","12","yes","1280","26"
"300","38.4615384615","38.4615384615","898.846153846","898.846153846","black","no","xpyriment","legacy","legacy","0","203","NA","uniform","56149","1000","0.0178097561844","0","undefined","0","0","12","12","12","0","12","12","12","NA","12","12","0","12","NA","12","12","0","12","NA","12","NA","12","0","0","12","12","0","12","12","13","z","10/17/18 16:18:11","The main experiment item","yes","FIN__AB__M21__7%3A10%3A17.osexp","C:\Users\ERP Testing Room\Desktop\Joanna\morph21","no","mono","no","18","no","white","no","yes","1080","legacy","12","12","C:/Users/ERP Testing Room/Desktop/Joanna/morph21/subject-141.csv","xpyriment","Jazzy James","3.1.4","0","None","NA","NA","NA","NA","space","None","988","NA","NA","NA","NA","126984","988","2","legacy","1024","2","48000","-16","AB_m21","141","odd","NW_S_COMP","CURTITY","2353","176315","174731","171648","129357","NA","NA","NA","NA","168516","175229","NA","174231","NA","174226","176311","2372","176615","NA","NA","175323","2353","2353","175715","174226","2353","175323","176615","morph21_Oliver/Morris","5","11685","13","yes","1280","11"
"300","35.7142857143","35.7142857143","888.285714286","888.285714286","black","no","xpyriment","legacy","legacy","0","206","NA","uniform","67616","1000","0.0147893989588","0","undefined","0","0","13","13","13","0","13","13","13","NA","13","13","0","13","NA","13","13","0","13","NA","13","NA","13","0","0","13","13","0","13","13","14","z","10/17/18 16:18:11","The main experiment item","yes","FIN__AB__M21__7%3A10%3A17.osexp","C:\Users\ERP Testing Room\Desktop\Joanna\morph21","no","mono","no","18","no","white","no","yes","1080","legacy","13","13","C:/Users/ERP Testing Room/Desktop/Joanna/morph21/subject-141.csv","xpyriment","Jazzy James","3.1.4","0","/","NA","NA","NA","NA","space","/","751","NA","NA","NA","NA","126984","751","2","legacy","1024","2","48000","-16","AB_m21","141","odd","NW_L_SIMP","BEANITH","2353","179398","177782","171648","129357","NA","NA","NA","NA","168516","178279","NA","177282","NA","177273","179390","2372","179698","NA","NA","178398","2353","2353","178790","177273","2353","178398","179698","morph21_Oliver/Morris","5","12436","14","yes","1280","8"
"300","33.3333333333","33.3333333333","895","895","black","no","xpyriment","legacy","legacy","0","205","NA","uniform","63987","1000","0.0156281744729","0","undefined","0","0","14","14","14","0","14","14","14","NA","14","14","0","14","NA","14","14","0","14","NA","14","NA","14","0","0","14","14","0","14","14","15","z","10/17/18 16:18:11","The main experiment item","yes","FIN__AB__M21__7%3A10%3A17.osexp","C:\Users\ERP Testing Room\Desktop\Joanna\morph21","no","mono","no","18","no","white","no","yes","1080","legacy","14","14","C:/Users/ERP Testing Room/Desktop/Joanna/morph21/subject-141.csv","xpyriment","Jazzy James","3.1.4","0","None","NA","NA","NA","NA","space","None","989","NA","NA","NA","NA","126984","989","2","legacy","1024","2","48000","-16","AB_m21","141","odd","NW_S_SIMP","BOLTOES","2353","183999","180890","182491","129357","NA","NA","NA","NA","168516","181387","NA","180390","NA","180381","182487","2372","184300","NA","NA","181498","2353","2353","181891","180381","2353","181498","184300","morph21_Oliver/Morris","5","13425","15","yes","1280","13"
"250","37.5","37.5","877.4375","877.4375","black","no","xpyriment","legacy","legacy","0","202","NA","uniform","74553","1000","0.013413276461","1","undefined","1","0","15","15","15","0","15","15","15","NA","15","15","0","15","NA","15","15","0","15","NA","15","NA","15","0","0","15","15","0","15","15","16","/","10/17/18 16:18:11","The main experiment item","yes","FIN__AB__M21__7%3A10%3A17.osexp","C:\Users\ERP Testing Room\Desktop\Joanna\morph21","no","mono","no","18","no","white","no","yes","1080","legacy","15","15","C:/Users/ERP Testing Room/Desktop/Joanna/morph21/subject-141.csv","xpyriment","Jazzy James","3.1.4","0","/","NA","NA","NA","NA","space","/","614","NA","NA","NA","NA","126984","614","2","legacy","1024","2","48000","-16","AB_m21","141","odd","CW_L","FLEXIBLE","2353","187183","185566","182491","129357","NA","NA","NA","NA","187173","186063","NA","185066","NA","185060","187173","2372","187433","NA","NA","186183","2353","2353","186574","185059","2353","186183","187433","morph21_Oliver/Morris","6","14039","16","yes","1280","22"
"350","41.1764705882","41.1764705882","865.294117647","865.294117647","black","no","xpyriment","legacy","legacy","0","202","NA","uniform","75011","1000","0.0133313780646","1","undefined","1","0","16","16","16","0","16","16","16","NA","16","16","0","16","NA","16","16","0","16","NA","16","NA","16","0","0","16","16","0","16","16","17","/","10/17/18 16:18:11","The main experiment item","yes","FIN__AB__M21__7%3A10%3A17.osexp","C:\Users\ERP Testing Room\Desktop\Joanna\morph21","no","mono","no","18","no","white","no","yes","1080","legacy","16","16","C:/Users/ERP Testing Room/Desktop/Joanna/morph21/subject-141.csv","xpyriment","Jazzy James","3.1.4","0","/","NA","NA","NA","NA","space","/","671","NA","NA","NA","NA","126984","671","2","legacy","1024","2","48000","-16","AB_m21","141","odd","CW_L","BARKER","2353","190166","188583","182491","129357","NA","NA","NA","NA","190162","189080","NA","188083","NA","188076","190162","2372","190516","NA","NA","189166","2353","2353","189566","188076","2353","189166","190516","morph21_Oliver/Morris","7","14710","17","yes","1280","2"
"350","38.8888888889","38.8888888889","872.166666667","872.166666667","black","no","xpyriment","legacy","legacy","0","204","NA","uniform","54546","1000","0.0183331500018","0","undefined","0","0","17","17","17","0","17","17","17","NA","17","17","0","17","NA","17","17","0","17","NA","17","NA","17","0","0","17","17","0","17","17","18","z","10/17/18 16:18:11","The main experiment item","yes","FIN__AB__M21__7%3A10%3A17.osexp","C:\Users\ERP Testing Room\Desktop\Joanna\morph21","no","mono","no","18","no","white","no","yes","1080","legacy","17","17","C:/Users/ERP Testing Room/Desktop/Joanna/morph21/subject-141.csv","xpyriment","Jazzy James","3.1.4","0","None","NA","NA","NA","NA","space","None","989","NA","NA","NA","NA","126984","989","2","legacy","1024","2","48000","-16","AB_m21","141","odd","NW_L_COMP","MOUTHIZE","2353","194833","191741","193325","129357","NA","NA","NA","NA","190162","192239","NA","191241","NA","191238","193322","2372","195183","NA","NA","192333","2353","2353","192725","191238","2353","192333","195183","morph21_Oliver/Morris","7","15699","18","yes","1280","11"
"200","42.1052631579","42.1052631579","855.684210526","855.684210526","black","no","xpyriment","legacy","legacy","0","207","NA","uniform","70114","1000","0.0142624868072","1","undefined","1","0","18","18","18","0","18","18","18","NA","18","18","0","18","NA","18","18","0","18","NA","18","NA","18","0","0","18","18","0","18","18","19","/","10/17/18 16:18:11","The main experiment item","yes","FIN__AB__M21__7%3A10%3A17.osexp","C:\Users\ERP Testing Room\Desktop\Joanna\morph21","no","mono","no","18","no","white","no","yes","1080","legacy","18","18","C:/Users/ERP Testing Room/Desktop/Joanna/morph21/subject-141.csv","xpyriment","Jazzy James","3.1.4","0","/","NA","NA","NA","NA","space","/","559","NA","NA","NA","NA","126984","559","2","legacy","1024","2","48000","-16","AB_m21","141","odd","FILL_W","BLEAK","2353","197958","196375","193325","129357","NA","NA","NA","NA","197951","196872","NA","195875","NA","195866","197951","2372","198159","NA","NA","196958","2353","2353","197350","195866","2353","196958","198159","morph21_Oliver/Morris","8","16258","19","yes","1280","5"
"250","40","40","846.8","846.8","black","no","xpyriment","legacy","legacy","0","204","NA","uniform","65101","1000","0.0153607471467","0","undefined","0","0","19","19","19","0","19","19","19","NA","19","19","0","19","NA","19","19","0","19","NA","19","NA","19","0","0","19","19","0","19","19","20","z","10/17/18 16:18:11","The main experiment item","yes","FIN__AB__M21__7%3A10%3A17.osexp","C:\Users\ERP Testing Room\Desktop\Joanna\morph21","no","mono","no","18","no","white","no","yes","1080","legacy","19","19","C:/Users/ERP Testing Room/Desktop/Joanna/morph21/subject-141.csv","xpyriment","Jazzy James","3.1.4","0","/","NA","NA","NA","NA","space","/","678","NA","NA","NA","NA","126984","678","2","legacy","1024","2","48000","-16","AB_m21","141","odd","NW_L_COMP","MUDLY","2353","200934","199326","193325","129357","NA","NA","NA","NA","197951","199823","NA","198825","NA","198817","200924","2372","201185","NA","NA","199935","2353","2353","200326","198817","2353","199934","201185","morph21_Oliver/Morris","8","16936","20","yes","1280","12"
"250","42.8571428571","42.8571428571","838.19047619","838.19047619","black","no","xpyriment","legacy","legacy","0","207","NA","uniform","66480","1000","0.0150421179302","1","undefined","1","0","20","20","20","0","20","20","20","NA","20","20","0","20","NA","20","20","0","20","NA","20","NA","20","0","0","20","20","0","20","20","21","/","10/17/18 16:18:11","The main experiment item","yes","FIN__AB__M21__7%3A10%3A17.osexp","C:\Users\ERP Testing Room\Desktop\Joanna\morph21","no","mono","no","18","no","white","no","yes","1080","legacy","20","20","C:/Users/ERP Testing Room/Desktop/Joanna/morph21/subject-141.csv","xpyriment","Jazzy James","3.1.4","0","/","NA","NA","NA","NA","space","/","666","NA","NA","NA","NA","126984","666","2","legacy","1024","2","48000","-16","AB_m21","141","odd","FILL_W","PACK","2353","205543","202435","204035","129357","NA","NA","NA","NA","204032","202932","NA","201935","NA","201926","204032","2372","205793","NA","NA","203043","2353","2353","203435","201926","2353","203043","205793","morph21_Oliver/Morris","9","17602","21","yes","1280","41"
"350","45.4545454545","45.4545454545","827.090909091","827.090909091","black","no","xpyriment","legacy","legacy","0","202","NA","uniform","77668","1000","0.0128753154452","1","undefined","1","0","21","21","21","0","21","21","21","NA","21","21","0","21","NA","21","21","0","21","NA","21","NA","21","0","0","21","21","0","21","21","22","/","10/17/18 16:18:11","The main experiment item","yes","FIN__AB__M21__7%3A10%3A17.osexp","C:\Users\ERP Testing Room\Desktop\Joanna\morph21","no","mono","no","18","no","white","no","yes","1080","legacy","21","21","C:/Users/ERP Testing Room/Desktop/Joanna/morph21/subject-141.csv","xpyriment","Jazzy James","3.1.4","0","/","NA","NA","NA","NA","space","/","594","NA","NA","NA","NA","126984","594","2","legacy","1024","2","48000","-16","AB_m21","141","odd","CW_L","PAINTER","2353","208635","207018","204035","129357","NA","NA","NA","NA","208632","207515","NA","206518","NA","206511","208632","2372","208985","NA","NA","207643","2353","2353","208035","206511","2353","207643","208985","morph21_Oliver/Morris","10","18196","22","yes","1280","18"
"400","47.8260869565","47.8260869565","811","811","black","no","xpyriment","legacy","legacy","0","207","NA","uniform","79885","1000","0.0125179946173","1","undefined","1","0","22","22","22","0","22","22","22","NA","22","22","0","22","NA","22","22","0","22","NA","22","NA","22","0","0","22","22","0","22","22","23","/","10/17/18 16:18:11","The main experiment item","yes","FIN__AB__M21__7%3A10%3A17.osexp","C:\Users\ERP Testing Room\Desktop\Joanna\morph21","no","mono","no","18","no","white","no","yes","1080","legacy","22","22","C:/Users/ERP Testing Room/Desktop/Joanna/morph21/subject-141.csv","xpyriment","Jazzy James","3.1.4","0","/","NA","NA","NA","NA","space","/","457","NA","NA","NA","NA","126984","457","2","legacy","1024","2","48000","-16","AB_m21","141","odd","FILL_W","STEEP","2353","211868","210277","204035","129357","NA","NA","NA","NA","211861","210774","NA","209777","NA","209766","211861","2372","212268","NA","NA","210868","2353","2353","211260","209766","2353","210868","212268","morph21_Oliver/Morris","11","18653","23","yes","1280","16"
"400","50","50","809.541666667","809.541666667","black","no","xpyriment","legacy","legacy","0","205","NA","uniform","67475","1000","0.0148203038162","1","undefined","1","0","23","23","23","0","23","23","23","NA","23","23","0","23","NA","23","23","0","23","NA","23","NA","23","0","0","23","23","0","23","23","24","z","10/17/18 16:18:11","The main experiment item","yes","FIN__AB__M21__7%3A10%3A17.osexp","C:\Users\ERP Testing Room\Desktop\Joanna\morph21","no","mono","no","18","no","white","no","yes","1080","legacy","23","23","C:/Users/ERP Testing Room/Desktop/Joanna/morph21/subject-141.csv","xpyriment","Jazzy James","3.1.4","0","z","NA","NA","NA","NA","space","z","776","NA","NA","NA","NA","126984","776","2","legacy","1024","2","48000","-16","AB_m21","141","odd","NW_S_SIMP","AIDIG","2353","216594","213502","215085","129357","NA","NA","NA","NA","215075","213999","NA","213002","NA","212998","215075","2372","216994","NA","NA","214085","2353","2353","214477","212998","2353","214085","216994","morph21_Oliver/Morris","12","19429","24","yes","1280","4"
"300","48","48","816.88","816.88","black","no","xpyriment","legacy","legacy","0","206","NA","uniform","60300","1000","0.016583747927","0","undefined","0","0","24","24","24","0","24","24","24","NA","24","24","0","24","NA","24","24","0","24","NA","24","NA","24","0","0","24","24","0","24","24","25","z","10/17/18 16:18:11","The main experiment item","yes","FIN__AB__M21__7%3A10%3A17.osexp","C:\Users\ERP Testing Room\Desktop\Joanna\morph21","no","mono","no","18","no","white","no","yes","1080","legacy","24","24","C:/Users/ERP Testing Room/Desktop/Joanna/morph21/subject-141.csv","xpyriment","Jazzy James","3.1.4","0","None","NA","NA","NA","NA","space","None","993","NA","NA","NA","NA","126984","993","2","legacy","1024","2","48000","-16","AB_m21","141","odd","NW_L_SIMP","TAXFIL","2353","219761","218178","215085","129357","NA","NA","NA","NA","215075","218675","NA","217678","NA","217670","219754","2372","220061","NA","NA","218761","2353","2353","219153","217670","2353","218761","220061","morph21_Oliver/Morris","12","20422","25","yes","1280","6"
"250","46.1538461538","46.1538461538","823.653846154","823.653846154","black","no","xpyriment","legacy","legacy","0","202","NA","uniform","60162","1000","0.0166217878395","0","undefined","0","0","25","25","25","0","25","25","25","NA","25","25","0","25","NA","25","25","0","25","NA","25","NA","25","0","0","25","25","0","25","25","26","/","10/17/18 16:18:11","The main experiment item","yes","FIN__AB__M21__7%3A10%3A17.osexp","C:\Users\ERP Testing Room\Desktop\Joanna\morph21","no","mono","no","18","no","white","no","yes","1080","legacy","25","25","C:/Users/ERP Testing Room/Desktop/Joanna/morph21/subject-141.csv","xpyriment","Jazzy James","3.1.4","0","None","NA","NA","NA","NA","space","None","993","NA","NA","NA","NA","126984","993","2","legacy","1024","2","48000","-16","AB_m21","141","odd","CW_L","DEAFNESS","2353","222936","221345","215085","129357","NA","NA","NA","NA","215075","221842","NA","220845","NA","220834","222929","2372","223186","NA","NA","221936","2353","2353","222328","220834","2353","221936","223186","morph21_Oliver/Morris","12","21415","26","yes","1280","39"
"300","48.1481481481","48.1481481481","824.962962963","824.962962963","black","no","xpyriment","legacy","legacy","0","201","NA","uniform","65628","1000","0.0152373986713","1","undefined","1","0","26","26","26","0","26","26","26","NA","26","26","0","26","NA","26","26","0","26","NA","26","NA","26","0","0","26","26","0","26","26","27","/","10/17/18 16:18:11","The main experiment item","yes","FIN__AB__M21__7%3A10%3A17.osexp","C:\Users\ERP Testing Room\Desktop\Joanna\morph21","no","mono","no","18","no","white","no","yes","1080","legacy","26","26","C:/Users/ERP Testing Room/Desktop/Joanna/morph21/subject-141.csv","xpyriment","Jazzy James","3.1.4","0","/","NA","NA","NA","NA","space","/","859","NA","NA","NA","NA","126984","859","2","legacy","1024","2","48000","-16","AB_m21","141","odd","CW_S","DETECTABLE","2353","227670","224545","226162","129357","NA","NA","NA","NA","226156","225042","NA","224045","NA","224037","226156","2372","227970","NA","NA","225162","2353","2353","225553","224037","2353","225162","227970","morph21_Oliver/Morris","13","22274","27","yes","1280","1"
"350","50","50","815.714285714","815.714285714","black","no","xpyriment","legacy","legacy","0","207","NA","uniform","76688","1000","0.0130398497809","1","undefined","1","0","27","27","27","0","27","27","27","NA","27","27","0","27","NA","27","27","0","27","NA","27","NA","27","0","0","27","27","0","27","27","28","/","10/17/18 16:18:11","The main experiment item","yes","FIN__AB__M21__7%3A10%3A17.osexp","C:\Users\ERP Testing Room\Desktop\Joanna\morph21","no","mono","no","18","no","white","no","yes","1080","legacy","27","27","C:/Users/ERP Testing Room/Desktop/Joanna/morph21/subject-141.csv","xpyriment","Jazzy James","3.1.4","0","/","NA","NA","NA","NA","space","/","566","NA","NA","NA","NA","126984","566","2","legacy","1024","2","48000","-16","AB_m21","141","odd","FILL_W","WEIRD","2353","230903","229262","226162","129357","NA","NA","NA","NA","230893","229759","NA","228762","NA","228752","230893","2372","231253","NA","NA","229903","2353","2353","230295","228752","2353","229903","231253","morph21_Oliver/Morris","14","22840","28","yes","1280","2"
"200","48.275862069","48.275862069","821.724137931","821.724137931","black","no","xpyriment","legacy","legacy","0","203","NA","uniform","55693","1000","0.0179555779003","0","undefined","0","0","28","28","28","0","28","28","28","NA","28","28","0","28","NA","28","28","0","28","NA","28","NA","28","0","0","28","28","0","28","28","29","z","10/17/18 16:18:11","The main experiment item","yes","FIN__AB__M21__7%3A10%3A17.osexp","C:\Users\ERP Testing Room\Desktop\Joanna\morph21","no","mono","no","18","no","white","no","yes","1080","legacy","28","28","C:/Users/ERP Testing Room/Desktop/Joanna/morph21/subject-141.csv","xpyriment","Jazzy James","3.1.4","0","None","NA","NA","NA","NA","space","None","990","NA","NA","NA","NA","126984","990","2","legacy","1024","2","48000","-16","AB_m21","141","odd","NW_S_COMP","YANKORY","2353","234137","232512","226162","129357","NA","NA","NA","NA","230893","233009","NA","232012","NA","232007","234128","2372","234337","NA","NA","233137","2353","2353","233529","232007","2353","233137","234337","morph21_Oliver/Morris","14","23830","29","yes","1280","23"
"250","50","50","819.233333333","819.233333333","black","no","xpyriment","legacy","legacy","0","207","NA","uniform","67240","1000","0.0148720999405","1","undefined","1","0","29","29","29","0","29","29","29","NA","29","29","0","29","NA","29","29","0","29","NA","29","NA","29","0","0","29","29","0","29","29","30","/","10/17/18 16:18:11","The main experiment item","yes","FIN__AB__M21__7%3A10%3A17.osexp","C:\Users\ERP Testing Room\Desktop\Joanna\morph21","no","mono","no","18","no","white","no","yes","1080","legacy","29","29","C:/Users/ERP Testing Room/Desktop/Joanna/morph21/subject-141.csv","xpyriment","Jazzy James","3.1.4","0","/","NA","NA","NA","NA","space","/","747","NA","NA","NA","NA","126984","747","2","legacy","1024","2","48000","-16","AB_m21","141","odd","FILL_W","STARVE","2353","238638","235538","237130","129357","NA","NA","NA","NA","237121","236035","NA","235038","NA","235033","237121","2372","238888","NA","NA","236130","2353","2353","236521","235033","2353","236130","238888","morph21_Oliver/Morris","15","24577","30","yes","1280","15"
"200","51.6129032258","51.6129032258","816.451612903","816.451612903","black","no","xpyriment","legacy","legacy","0","202","NA","uniform","69679","1000","0.0143515262848","1","undefined","1","0","30","30","30","0","30","30","30","NA","30","30","0","30","NA","30","30","0","30","NA","30","NA","30","0","0","30","30","0","30","30","31","/","10/17/18 16:18:11","The main experiment item","yes","FIN__AB__M21__7%3A10%3A17.osexp","C:\Users\ERP Testing Room\Desktop\Joanna\morph21","no","mono","no","18","no","white","no","yes","1080","legacy","30","30","C:/Users/ERP Testing Room/Desktop/Joanna/morph21/subject-141.csv","xpyriment","Jazzy James","3.1.4","0","/","NA","NA","NA","NA","space","/","733","NA","NA","NA","NA","126984","733","2","legacy","1024","2","48000","-16","AB_m21","141","odd","CW_L","BONELESS","2353","241688","240097","237130","129357","NA","NA","NA","NA","241681","240594","NA","239597","NA","239587","241681","2372","241888","NA","NA","240688","2353","2353","241080","239587","2353","240688","241888","morph21_Oliver/Morris","16","25310","31","yes","1280","34"
"300","50","50","821.875","821.875","black","no","xpyriment","legacy","legacy","0","203","NA","uniform","59823","1000","0.0167159788041","0","undefined","0","0","31","31","31","0","31","31","31","NA","31","31","0","31","NA","31","31","0","31","NA","31","NA","31","0","0","31","31","0","31","31","32","z","10/17/18 16:18:11","The main experiment item","yes","FIN__AB__M21__7%3A10%3A17.osexp","C:\Users\ERP Testing Room\Desktop\Joanna\morph21","no","mono","no","18","no","white","no","yes","1080","legacy","31","31","C:/Users/ERP Testing Room/Desktop/Joanna/morph21/subject-141.csv","xpyriment","Jazzy James","3.1.4","0","None","NA","NA","NA","NA","space","None","990","NA","NA","NA","NA","126984","990","2","legacy","1024","2","48000","-16","AB_m21","141","odd","NW_S_COMP","FIGER","2353","244730","243130","237130","129357","NA","NA","NA","NA","241681","243627","NA","242630","NA","242623","244720","2372","245030","NA","NA","243730","2353","2353","244122","242623","2353","243730","245030","morph21_Oliver/Morris","16","26300","32","yes","1280","4"
"400","51.5151515152","51.5151515152","822.878787879","822.878787879","black","no","xpyriment","legacy","legacy","0","202","NA","uniform","63986","1000","0.0156284187166","1","undefined","1","0","32","32","32","0","32","32","32","NA","32","32","0","32","NA","32","32","0","32","NA","32","NA","32","0","0","32","32","0","32","32","33","/","10/17/18 16:18:11","The main experiment item","yes","FIN__AB__M21__7%3A10%3A17.osexp","C:\Users\ERP Testing Room\Desktop\Joanna\morph21","no","mono","no","18","no","white","no","yes","1080","legacy","32","32","C:/Users/ERP Testing Room/Desktop/Joanna/morph21/subject-141.csv","xpyriment","Jazzy James","3.1.4","0","/","NA","NA","NA","NA","space","/","855","NA","NA","NA","NA","126984","855","2","legacy","1024","2","48000","-16","AB_m21","141","odd","CW_L","WRONGLY","2353","249347","246255","247839","129357","NA","NA","NA","NA","247833","246752","NA","245755","NA","245750","247833","2372","249747","NA","NA","246838","2353","2353","247230","245750","2353","246838","249747","morph21_Oliver/Morris","17","27155","33","yes","1280","37"
"200","50","50","827.852941176","827.852941176","black","no","xpyriment","legacy","legacy","0","203","NA","uniform","59202","1000","0.0168913212391","0","undefined","0","0","33","33","33","0","33","33","33","NA","33","33","0","33","NA","33","33","0","33","NA","33","NA","33","0","0","33","33","0","33","33","34","z","10/17/18 16:18:11","The main experiment item","yes","FIN__AB__M21__7%3A10%3A17.osexp","C:\Users\ERP Testing Room\Desktop\Joanna\morph21","no","mono","no","18","no","white","no","yes","1080","legacy","33","33","C:/Users/ERP Testing Room/Desktop/Joanna/morph21/subject-141.csv","xpyriment","Jazzy James","3.1.4","0","None","NA","NA","NA","NA","space","None","992","NA","NA","NA","NA","126984","992","2","legacy","1024","2","48000","-16","AB_m21","141","odd","NW_S_COMP","ADOPTISH","2353","252565","250964","247839","129357","NA","NA","NA","NA","247833","251461","NA","250464","NA","250458","252556","2372","252765","NA","NA","251564","2353","2353","251956","250458","2353","251564","252765","morph21_Oliver/Morris","17","28147","34","yes","1280","19"
"200","51.4285714286","51.4285714286","829.085714286","829.085714286","black","no","xpyriment","legacy","legacy","0","201","NA","uniform","58389","1000","0.0171265135556","1","undefined","1","0","34","34","34","0","34","34","34","NA","34","34","0","34","NA","34","34","0","34","NA","34","NA","34","0","0","34","34","0","34","34","35","/","10/17/18 16:18:11","The main experiment item","yes","FIN__AB__M21__7%3A10%3A17.osexp","C:\Users\ERP Testing Room\Desktop\Joanna\morph21","no","mono","no","18","no","white","no","yes","1080","legacy","34","34","C:/Users/ERP Testing Room/Desktop/Joanna/morph21/subject-141.csv","xpyriment","Jazzy James","3.1.4","0","/","NA","NA","NA","NA","space","/","871","NA","NA","NA","NA","126984","871","2","legacy","1024","2","48000","-16","AB_m21","141","odd","CW_S","ENJOYMENT","2353","255598","253990","247839","129357","NA","NA","NA","NA","255590","254487","NA","253490","NA","253479","255590","2372","255798","NA","NA","254598","2353","2353","254990","253479","2353","254598","255798","morph21_Oliver/Morris","18","29018","35","yes","1280","40"
"350","50","50","832.305555556","832.305555556","black","no","xpyriment","legacy","legacy","0","204","NA","uniform","62333","1000","0.0160428665394","0","undefined","0","0","35","35","35","0","35","35","35","NA","35","35","0","35","NA","35","35","0","35","NA","35","NA","35","0","0","35","35","0","35","35","36","z","10/17/18 16:18:11","The main experiment item","yes","FIN__AB__M21__7%3A10%3A17.osexp","C:\Users\ERP Testing Room\Desktop\Joanna\morph21","no","mono","no","18","no","white","no","yes","1080","legacy","35","35","C:/Users/ERP Testing Room/Desktop/Joanna/morph21/subject-141.csv","xpyriment","Jazzy James","3.1.4","0","/","NA","NA","NA","NA","space","/","945","NA","NA","NA","NA","126984","945","2","legacy","1024","2","48000","-16","AB_m21","141","odd","NW_L_COMP","AGREELY","2353","260257","257140","258748","129357","NA","NA","NA","NA","255590","257637","NA","256640","NA","256632","258743","2372","260607","NA","NA","257748","2353","2353","258148","256632","2353","257748","260607","morph21_Oliver/Morris","18","29963","36","yes","1280","24"
"300","51.3513513514","51.3513513514","833.567567568","833.567567568","black","no","xpyriment","legacy","legacy","0","201","NA","uniform","53180","1000","0.0188040616773","1","undefined","1","0","36","36","36","0","36","36","36","NA","36","36","0","36","NA","36","36","0","36","NA","36","NA","36","0","0","36","36","0","36","36","37","/","10/17/18 16:18:11","The main experiment item","yes","FIN__AB__M21__7%3A10%3A17.osexp","C:\Users\ERP Testing Room\Desktop\Joanna\morph21","no","mono","no","18","no","white","no","yes","1080","legacy","36","36","C:/Users/ERP Testing Room/Desktop/Joanna/morph21/subject-141.csv","xpyriment","Jazzy James","3.1.4","0","/","NA","NA","NA","NA","space","/","879","NA","NA","NA","NA","126984","879","2","legacy","1024","2","48000","-16","AB_m21","141","odd","CW_S","RISKY","2353","263382","261798","258748","129357","NA","NA","NA","NA","263374","262296","NA","261298","NA","261293","263374","2372","263682","NA","NA","262382","2353","2353","262773","261293","2353","262382","263682","morph21_Oliver/Morris","19","30842","37","yes","1280","50"
"250","50","50","837.710526316","837.710526316","black","no","xpyriment","legacy","legacy","0","208","NA","uniform","60369","1000","0.0165647931886","0","undefined","0","0","37","37","37","0","37","37","37","NA","37","37","0","37","NA","37","37","0","37","NA","37","NA","37","0","0","37","37","0","37","37","38","z","10/17/18 16:18:11","The main experiment item","yes","FIN__AB__M21__7%3A10%3A17.osexp","C:\Users\ERP Testing Room\Desktop\Joanna\morph21","no","mono","no","18","no","white","no","yes","1080","legacy","37","37","C:/Users/ERP Testing Room/Desktop/Joanna/morph21/subject-141.csv","xpyriment","Jazzy James","3.1.4","0","None","NA","NA","NA","NA","space","None","991","NA","NA","NA","NA","126984","991","2","legacy","1024","2","48000","-16","AB_m21","141","odd","FILL_NW","POLT","2353","266632","265040","258748","129357","NA","NA","NA","NA","263374","265537","NA","264540","NA","264529","266623","2372","266882","NA","NA","265632","2353","2353","266024","264529","2353","265632","266882","morph21_Oliver/Morris","19","31833","38","yes","1280","38"
"250","51.2820512821","51.2820512821","838.282051282","838.282051282","black","no","xpyriment","legacy","legacy","0","207","NA","uniform","60213","1000","0.0166077092987","1","undefined","1","0","38","38","38","0","38","38","38","NA","38","38","0","38","NA","38","38","0","38","NA","38","NA","38","0","0","38","38","0","38","38","39","/","10/17/18 16:18:11","The main experiment item","yes","FIN__AB__M21__7%3A10%3A17.osexp","C:\Users\ERP Testing Room\Desktop\Joanna\morph21","no","mono","no","18","no","white","no","yes","1080","legacy","38","38","C:/Users/ERP Testing Room/Desktop/Joanna/morph21/subject-141.csv","xpyriment","Jazzy James","3.1.4","0","/","NA","NA","NA","NA","space","/","860","NA","NA","NA","NA","126984","860","2","legacy","1024","2","48000","-16","AB_m21","141","odd","FILL_W","WEAVE","2353","271167","268074","269658","129357","NA","NA","NA","NA","269648","268571","NA","267574","NA","267567","269648","2372","271417","NA","NA","268657","2353","2353","269049","267567","2353","268657","271417","morph21_Oliver/Morris","20","32693","39","yes","1280","12"
"250","50","50","842.1","842.1","black","no","xpyriment","legacy","legacy","0","203","NA","uniform","60053","1000","0.0166519574376","0","undefined","0","0","39","39","39","0","39","39","39","NA","39","39","0","39","NA","39","39","0","39","NA","39","NA","39","0","0","39","39","0","39","39","40","z","10/17/18 16:18:11","The main experiment item","yes","FIN__AB__M21__7%3A10%3A17.osexp","C:\Users\ERP Testing Room\Desktop\Joanna\morph21","no","mono","no","18","no","white","no","yes","1080","legacy","39","39","C:/Users/ERP Testing Room/Desktop/Joanna/morph21/subject-141.csv","xpyriment","Jazzy James","3.1.4","0","None","NA","NA","NA","NA","space","None","991","NA","NA","NA","NA","126984","991","2","legacy","1024","2","48000","-16","AB_m21","141","odd","NW_S_COMP","LIDARY","2353","274275","272692","269658","129357","NA","NA","NA","NA","269648","273189","NA","272192","NA","272182","274267","2372","274525","NA","NA","273275","2353","2353","273667","272182","2353","273275","274525","morph21_Oliver/Morris","20","33684","40","yes","1280","3"
"350","48.7804878049","48.7804878049","845.658536585","845.658536585","black","no","xpyriment","legacy","legacy","0","203","NA","uniform","56845","1000","0.0175916967191","0","undefined","0","0","40","40","40","0","40","40","40","NA","40","40","0","40","NA","40","40","0","40","NA","40","NA","40","0","0","40","40","0","40","40","41","z","10/17/18 16:18:11","The main experiment item","yes","FIN__AB__M21__7%3A10%3A17.osexp","C:\Users\ERP Testing Room\Desktop\Joanna\morph21","no","mono","no","18","no","white","no","yes","1080","legacy","40","40","C:/Users/ERP Testing Room/Desktop/Joanna/morph21/subject-141.csv","xpyriment","Jazzy James","3.1.4","0","None","NA","NA","NA","NA","space","None","988","NA","NA","NA","NA","126984","988","2","legacy","1024","2","48000","-16","AB_m21","141","odd","NW_S_COMP","FIENDISM","2353","277442","275842","269658","129357","NA","NA","NA","NA","269648","276339","NA","275342","NA","275338","277439","2372","277792","NA","NA","276450","2353","2353","276842","275337","2353","276450","277792","morph21_Oliver/Morris","20","34672","41","yes","1280","24"
"250","47.619047619","47.619047619","849.166666667","849.166666667","black","no","xpyriment","legacy","legacy","0","204","NA","uniform","58153","1000","0.0171960174024","0","undefined","0","0","41","41","41","0","41","41","41","NA","41","41","0","41","NA","41","41","0","41","NA","41","NA","41","0","0","41","41","0","41","41","42","z","10/17/18 16:18:11","The main experiment item","yes","FIN__AB__M21__7%3A10%3A17.osexp","C:\Users\ERP Testing Room\Desktop\Joanna\morph21","no","mono","no","18","no","white","no","yes","1080","legacy","41","41","C:/Users/ERP Testing Room/Desktop/Joanna/morph21/subject-141.csv","xpyriment","Jazzy James","3.1.4","0","None","NA","NA","NA","NA","space","None","993","NA","NA","NA","NA","126984","993","2","legacy","1024","2","48000","-16","AB_m21","141","odd","NW_L_COMP","BREAKITY","2353","282209","279075","280700","129357","NA","NA","NA","NA","269648","279572","NA","278575","NA","278567","280694","2372","282459","NA","NA","279700","2353","2353","280092","278567","2353","279700","282459","morph21_Oliver/Morris","20","35665","42","yes","1280","23"
"300","46.511627907","46.511627907","852.465116279","852.465116279","black","no","xpyriment","legacy","legacy","0","204","NA","uniform","61713","1000","0.0162040412879","0","undefined","0","0","42","42","42","0","42","42","42","NA","42","42","0","42","NA","42","42","0","42","NA","42","NA","42","0","0","42","42","0","42","42","43","z","10/17/18 16:18:11","The main experiment item","yes","FIN__AB__M21__7%3A10%3A17.osexp","C:\Users\ERP Testing Room\Desktop\Joanna\morph21","no","mono","no","18","no","white","no","yes","1080","legacy","42","42","C:/Users/ERP Testing Room/Desktop/Joanna/morph21/subject-141.csv","xpyriment","Jazzy James","3.1.4","0","None","NA","NA","NA","NA","space","None","991","NA","NA","NA","NA","126984","991","2","legacy","1024","2","48000","-16","AB_m21","141","odd","NW_L_COMP","ADDMENT","2353","285342","283759","280700","129357","NA","NA","NA","NA","269648","284256","NA","283259","NA","283251","285334","2372","285642","NA","NA","284342","2353","2353","284734","283251","2353","284342","285642","morph21_Oliver/Morris","20","36656","43","yes","1280","13"
"350","47.7272727273","47.7272727273","853.977272727","853.977272727","black","no","xpyriment","legacy","legacy","0","202","NA","uniform","62063","1000","0.0161126597167","1","undefined","1","0","43","43","43","0","43","43","43","NA","43","43","0","43","NA","43","43","0","43","NA","43","NA","43","0","0","43","43","0","43","43","44","/","10/17/18 16:18:11","The main experiment item","yes","FIN__AB__M21__7%3A10%3A17.osexp","C:\Users\ERP Testing Room\Desktop\Joanna\morph21","no","mono","no","18","no","white","no","yes","1080","legacy","43","43","C:/Users/ERP Testing Room/Desktop/Joanna/morph21/subject-141.csv","xpyriment","Jazzy James","3.1.4","0","/","NA","NA","NA","NA","space","/","919","NA","NA","NA","NA","126984","919","2","legacy","1024","2","48000","-16","AB_m21","141","odd","CW_L","PARKING","2353","288502","286885","280700","129357","NA","NA","NA","NA","288497","287382","NA","286384","NA","286379","288497","2372","288852","NA","NA","287502","2353","2353","287902","286378","2353","287501","288852","morph21_Oliver/Morris","21","37575","44","yes","1280","25"
"200","46.6666666667","46.6666666667","856.955555556","856.955555556","black","no","xpyriment","legacy","legacy","0","206","NA","uniform","54447","1000","0.0183664848385","0","undefined","0","0","44","44","44","0","44","44","44","NA","44","44","0","44","NA","44","44","0","44","NA","44","NA","44","0","0","44","44","0","44","44","45","z","10/17/18 16:18:11","The main experiment item","yes","FIN__AB__M21__7%3A10%3A17.osexp","C:\Users\ERP Testing Room\Desktop\Joanna\morph21","no","mono","no","18","no","white","no","yes","1080","legacy","44","44","C:/Users/ERP Testing Room/Desktop/Joanna/morph21/subject-141.csv","xpyriment","Jazzy James","3.1.4","0","None","NA","NA","NA","NA","space","None","988","NA","NA","NA","NA","126984","988","2","legacy","1024","2","48000","-16","AB_m21","141","odd","NW_L_SIMP","TOWERLA","2353","293202","290077","291693","129357","NA","NA","NA","NA","288497","290574","NA","289577","NA","289572","291690","2372","293402","NA","NA","290702","2353","2353","291093","289572","2353","290702","293402","morph21_Oliver/Morris","21","38563","45","yes","1280","15"
"400","45.652173913","45.652173913","859.934782609","859.934782609","black","no","xpyriment","legacy","legacy","0","206","NA","uniform","55480","1000","0.0180245133381","0","undefined","0","0","45","45","45","0","45","45","45","NA","45","45","0","45","NA","45","45","0","45","NA","45","NA","45","0","0","45","45","0","45","45","46","z","10/17/18 16:18:11","The main experiment item","yes","FIN__AB__M21__7%3A10%3A17.osexp","C:\Users\ERP Testing Room\Desktop\Joanna\morph21","no","mono","no","18","no","white","no","yes","1080","legacy","45","45","C:/Users/ERP Testing Room/Desktop/Joanna/morph21/subject-141.csv","xpyriment","Jazzy James","3.1.4","0","None","NA","NA","NA","NA","space","None","994","NA","NA","NA","NA","126984","994","2","legacy","1024","2","48000","-16","AB_m21","141","odd","NW_L_SIMP","BOGADY","2353","296227","294602","291693","129357","NA","NA","NA","NA","288497","295099","NA","294102","NA","294090","296221","2372","296627","NA","NA","295227","2353","2353","295619","294090","2353","295227","296627","morph21_Oliver/Morris","21","39557","46","yes","1280","2"
"200","44.6808510638","44.6808510638","862.787234043","862.787234043","black","no","xpyriment","legacy","legacy","0","208","NA","uniform","54907","1000","0.0182126140565","0","undefined","0","0","46","46","46","0","46","46","46","NA","46","46","0","46","NA","46","46","0","46","NA","46","NA","46","0","0","46","46","0","46","46","47","z","10/17/18 16:18:11","The main experiment item","yes","FIN__AB__M21__7%3A10%3A17.osexp","C:\Users\ERP Testing Room\Desktop\Joanna\morph21","no","mono","no","18","no","white","no","yes","1080","legacy","46","46","C:/Users/ERP Testing Room/Desktop/Joanna/morph21/subject-141.csv","xpyriment","Jazzy James","3.1.4","0","None","NA","NA","NA","NA","space","None","994","NA","NA","NA","NA","126984","994","2","legacy","1024","2","48000","-16","AB_m21","141","odd","FILL_NW","FROT","2353","299510","297919","291693","129357","NA","NA","NA","NA","288497","298416","NA","297419","NA","297411","299504","2372","299711","NA","NA","298510","2353","2353","298902","297411","2353","298510","299711","morph21_Oliver/Morris","21","40551","47","yes","1280","22"
"250","45.8333333333","45.8333333333","864.875","864.875","black","no","xpyriment","legacy","legacy","0","207","NA","uniform","53366","1000","0.0187385226549","1","undefined","1","0","47","47","47","0","47","47","47","NA","47","47","0","47","NA","47","47","0","47","NA","47","NA","47","0","0","47","47","0","47","47","48","/","10/17/18 16:18:11","The main experiment item","yes","FIN__AB__M21__7%3A10%3A17.osexp","C:\Users\ERP Testing Room\Desktop\Joanna\morph21","no","mono","no","18","no","white","no","yes","1080","legacy","47","47","C:/Users/ERP Testing Room/Desktop/Joanna/morph21/subject-141.csv","xpyriment","Jazzy James","3.1.4","0","/","NA","NA","NA","NA","space","/","963","NA","NA","NA","NA","126984","963","2","legacy","1024","2","48000","-16","AB_m21","141","odd","FILL_W","SUIT","2353","304094","300994","302586","129357","NA","NA","NA","NA","302579","301491","NA","300494","NA","300484","302579","2372","304344","NA","NA","301586","2353","2353","301977","300484","2353","301586","304344","morph21_Oliver/Morris","22","41514","48","yes","1280","49"
"300","44.8979591837","44.8979591837","867.408163265","867.408163265","black","no","xpyriment","legacy","legacy","0","205","NA","uniform","49253","1000","0.0203033317767","0","undefined","0","0","48","48","48","0","48","48","48","NA","48","48","0","48","NA","48","48","0","48","NA","48","NA","48","0","0","48","48","0","48","48","49","z","10/17/18 16:18:11","The main experiment item","yes","FIN__AB__M21__7%3A10%3A17.osexp","C:\Users\ERP Testing Room\Desktop\Joanna\morph21","no","mono","no","18","no","white","no","yes","1080","legacy","48","48","C:/Users/ERP Testing Room/Desktop/Joanna/morph21/subject-141.csv","xpyriment","Jazzy James","3.1.4","0","None","NA","NA","NA","NA","space","None","989","NA","NA","NA","NA","126984","989","2","legacy","1024","2","48000","-16","AB_m21","141","odd","NW_S_SIMP","HELMETOES","2353","307312","305670","302586","129357","NA","NA","NA","NA","302579","306167","NA","305170","NA","305159","307301","2372","307612","NA","NA","306312","2353","2353","306703","305159","2353","306312","307612","morph21_Oliver/Morris","22","42503","49","yes","1280","14"
"350","46","46","863.9","863.9","black","no","xpyriment","legacy","legacy","0","202","NA","uniform","53105","1000","0.0188306185858","1","undefined","1","0","49","49","49","0","49","49","49","NA","49","49","0","49","NA","49","49","0","49","NA","49","NA","49","0","0","49","49","0","49","49","50","/","10/17/18 16:18:11","The main experiment item","yes","FIN__AB__M21__7%3A10%3A17.osexp","C:\Users\ERP Testing Room\Desktop\Joanna\morph21","no","mono","no","18","no","white","no","yes","1080","legacy","49","49","C:/Users/ERP Testing Room/Desktop/Joanna/morph21/subject-141.csv","xpyriment","Jazzy James","3.1.4","0","/","NA","NA","NA","NA","space","/","692","NA","NA","NA","NA","126984","692","2","legacy","1024","2","48000","-16","AB_m21","141","odd","CW_L","KICKING","2353","310537","308920","302586","129357","NA","NA","NA","NA","310531","309417","NA","308420","NA","308413","310531","2372","310887","NA","NA","309537","2353","2353","309929","308413","2353","309537","310887","morph21_Oliver/Morris","23","43195","50","yes","1280","23"
"400","45.0980392157","45.0980392157","866.352941176","866.352941176","black","no","xpyriment","legacy","legacy","0","203","NA","uniform","52351","1000","0.0191018318657","0","undefined","0","0","50","50","50","0","50","50","50","NA","50","50","0","50","NA","50","50","0","50","NA","50","NA","50","0","0","50","50","0","50","50","51","z","10/17/18 16:18:11","The main experiment item","yes","FIN__AB__M21__7%3A10%3A17.osexp","C:\Users\ERP Testing Room\Desktop\Joanna\morph21","no","mono","no","18","no","white","no","yes","1080","legacy","50","50","C:/Users/ERP Testing Room/Desktop/Joanna/morph21/subject-141.csv","xpyriment","Jazzy James","3.1.4","0","None","NA","NA","NA","NA","space","None","989","NA","NA","NA","NA","126984","989","2","legacy","1024","2","48000","-16","AB_m21","141","odd","NW_S_COMP","TRUENESS","2353","315379","312279","313870","129357","NA","NA","NA","NA","310531","312776","NA","311779","NA","311771","313860","2372","315779","NA","NA","312870","2353","2353","313262","311771","2353","312870","315779","morph21_Oliver/Morris","23","44184","51","yes","1280","15"
"200","46.1538461538","46.1538461538","865.038461538","865.038461538","black","no","xpyriment","legacy","legacy","0","207","NA","uniform","67900","1000","0.0147275405007","1","undefined","1","0","51","51","51","0","51","51","51","NA","51","51","0","51","NA","51","51","0","51","NA","51","NA","51","0","0","51","51","0","51","51","52","/","10/17/18 16:18:11","The main experiment item","yes","FIN__AB__M21__7%3A10%3A17.osexp","C:\Users\ERP Testing Room\Desktop\Joanna\morph21","no","mono","no","18","no","white","no","yes","1080","legacy","51","51","C:/Users/ERP Testing Room/Desktop/Joanna/morph21/subject-141.csv","xpyriment","Jazzy James","3.1.4","0","/","NA","NA","NA","NA","space","/","798","NA","NA","NA","NA","126984","798","2","legacy","1024","2","48000","-16","AB_m21","141","odd","FILL_W","STALK","2353","318679","317079","313870","129357","NA","NA","NA","NA","318673","317576","NA","316579","NA","316568","318673","2372","318879","NA","NA","317679","2353","2353","318071","316568","2353","317679","318879","morph21_Oliver/Morris","24","44982","52","yes","1280","27"
"300","45.2830188679","45.2830188679","867.41509434","867.41509434","black","no","xpyriment","legacy","legacy","0","202","NA","uniform","64184","1000","0.0155802069051","0","undefined","0","0","52","52","52","0","52","52","52","NA","52","52","0","52","NA","52","52","0","52","NA","52","NA","52","0","0","52","52","0","52","52","53","/","10/17/18 16:18:11","The main experiment item","yes","FIN__AB__M21__7%3A10%3A17.osexp","C:\Users\ERP Testing Room\Desktop\Joanna\morph21","no","mono","no","18","no","white","no","yes","1080","legacy","52","52","C:/Users/ERP Testing Room/Desktop/Joanna/morph21/subject-141.csv","xpyriment","Jazzy James","3.1.4","0","None","NA","NA","NA","NA","space","None","991","NA","NA","NA","NA","126984","991","2","legacy","1024","2","48000","-16","AB_m21","141","odd","CW_L","DAMPISH","2353","321730","320137","313870","129357","NA","NA","NA","NA","318673","320634","NA","319637","NA","319633","321720","2372","322030","NA","NA","320729","2353","2353","321121","319633","2353","320729","322030","morph21_Oliver/Morris","24","45973","53","yes","1280","28"
"400","46.2962962963","46.2962962963","867.611111111","867.611111111","black","no","xpyriment","legacy","legacy","0","202","NA","uniform","63917","1000","0.0156452899854","1","undefined","1","0","53","53","53","0","53","53","53","NA","53","53","0","53","NA","53","53","0","53","NA","53","NA","53","0","0","53","53","0","53","53","54","/","10/17/18 16:18:11","The main experiment item","yes","FIN__AB__M21__7%3A10%3A17.osexp","C:\Users\ERP Testing Room\Desktop\Joanna\morph21","no","mono","no","18","no","white","no","yes","1080","legacy","53","53","C:/Users/ERP Testing Room/Desktop/Joanna/morph21/subject-141.csv","xpyriment","Jazzy James","3.1.4","0","/","NA","NA","NA","NA","space","/","878","NA","NA","NA","NA","126984","878","2","legacy","1024","2","48000","-16","AB_m21","141","odd","CW_L","STYLISH","2353","326364","323272","324855","129357","NA","NA","NA","NA","324847","323769","NA","322772","NA","322762","324847","2372","326764","NA","NA","323855","2353","2353","324247","322761","2353","323855","326764","morph21_Oliver/Morris","25","46851","54","yes","1280","29"
"250","45.4545454545","45.4545454545","869.8","869.8","black","no","xpyriment","legacy","legacy","0","201","NA","uniform","55356","1000","0.0180648890816","0","undefined","0","0","54","54","54","0","54","54","54","NA","54","54","0","54","NA","54","54","0","54","NA","54","NA","54","0","0","54","54","0","54","54","55","/","10/17/18 16:18:11","The main experiment item","yes","FIN__AB__M21__7%3A10%3A17.osexp","C:\Users\ERP Testing Room\Desktop\Joanna\morph21","no","mono","no","18","no","white","no","yes","1080","legacy","54","54","C:/Users/ERP Testing Room/Desktop/Joanna/morph21/subject-141.csv","xpyriment","Jazzy James","3.1.4","0","None","NA","NA","NA","NA","space","None","988","NA","NA","NA","NA","126984","988","2","legacy","1024","2","48000","-16","AB_m21","141","odd","CW_S","HUGELY","2353","329605","327989","324855","129357","NA","NA","NA","NA","324847","328486","NA","327480","NA","327471","329602","2372","329855","NA","NA","328614","2353","2353","329005","327471","2353","328614","329855","morph21_Oliver/Morris","25","47839","55","yes","1280","35"
"250","44.6428571429","44.6428571429","871.964285714","871.964285714","black","no","xpyriment","legacy","legacy","0","203","NA","uniform","64667","1000","0.0154638378153","0","undefined","0","0","55","55","55","0","55","55","55","NA","55","55","0","55","NA","55","55","0","55","NA","55","NA","55","0","0","55","55","0","55","55","56","z","10/17/18 16:18:11","The main experiment item","yes","FIN__AB__M21__7%3A10%3A17.osexp","C:\Users\ERP Testing Room\Desktop\Joanna\morph21","no","mono","no","18","no","white","no","yes","1080","legacy","55","55","C:/Users/ERP Testing Room/Desktop/Joanna/morph21/subject-141.csv","xpyriment","Jazzy James","3.1.4","0","None","NA","NA","NA","NA","space","None","991","NA","NA","NA","NA","126984","991","2","legacy","1024","2","48000","-16","AB_m21","141","odd","NW_S_COMP","BEERER","2353","332656","331047","324855","129357","NA","NA","NA","NA","324847","331544","NA","330547","NA","330541","332646","2372","332906","NA","NA","331655","2353","2353","332047","330541","2353","331655","332906","morph21_Oliver/Morris","25","48830","56","yes","1280","5"
"400","43.8596491228","43.8596491228","874.052631579","874.052631579","black","no","xpyriment","legacy","legacy","0","201","NA","uniform","58258","1000","0.017165024546","0","undefined","0","0","56","56","56","0","56","56","56","NA","56","56","0","56","NA","56","56","0","56","NA","56","NA","56","0","0","56","56","0","56","56","57","/","10/17/18 16:18:11","The main experiment item","yes","FIN__AB__M21__7%3A10%3A17.osexp","C:\Users\ERP Testing Room\Desktop\Joanna\morph21","no","mono","no","18","no","white","no","yes","1080","legacy","56","56","C:/Users/ERP Testing Room/Desktop/Joanna/morph21/subject-141.csv","xpyriment","Jazzy James","3.1.4","0","None","NA","NA","NA","NA","space","None","991","NA","NA","NA","NA","126984","991","2","legacy","1024","2","48000","-16","AB_m21","141","odd","CW_S","RAIDER","2353","337247","334147","335739","129357","NA","NA","NA","NA","324847","334644","NA","333647","NA","333636","335730","2372","337648","NA","NA","334739","2353","2353","335131","333636","2353","334739","337648","morph21_Oliver/Morris","25","49821","57","yes","1280","12"
"350","43.1034482759","43.1034482759","876.137931034","876.137931034","black","no","xpyriment","legacy","legacy","0","204","NA","uniform","63101","1000","0.0158476093881","0","undefined","0","0","57","57","57","0","57","57","57","NA","57","57","0","57","NA","57","57","0","57","NA","57","NA","57","0","0","57","57","0","57","57","58","z","10/17/18 16:18:11","The main experiment item","yes","FIN__AB__M21__7%3A10%3A17.osexp","C:\Users\ERP Testing Room\Desktop\Joanna\morph21","no","mono","no","18","no","white","no","yes","1080","legacy","57","57","C:/Users/ERP Testing Room/Desktop/Joanna/morph21/subject-141.csv","xpyriment","Jazzy James","3.1.4","0","None","NA","NA","NA","NA","space","None","995","NA","NA","NA","NA","126984","995","2","legacy","1024","2","48000","-16","AB_m21","141","odd","NW_L_COMP","INKISM","2353","340549","338931","335739","129357","NA","NA","NA","NA","324847","339428","NA","338431","NA","338425","340544","2372","340899","NA","NA","339549","2353","2353","339948","338425","2353","339548","340899","morph21_Oliver/Morris","25","50816","58","yes","1280","8"
"300","42.3728813559","42.3728813559","878.084745763","878.084745763","black","no","xpyriment","legacy","legacy","0","208","NA","uniform","57505","1000","0.017389792192","0","undefined","0","0","58","58","58","0","58","58","58","NA","58","58","0","58","NA","58","58","0","58","NA","58","NA","58","0","0","58","58","0","58","58","59","z","10/17/18 16:18:11","The main experiment item","yes","FIN__AB__M21__7%3A10%3A17.osexp","C:\Users\ERP Testing Room\Desktop\Joanna\morph21","no","mono","no","18","no","white","no","yes","1080","legacy","58","58","C:/Users/ERP Testing Room/Desktop/Joanna/morph21/subject-141.csv","xpyriment","Jazzy James","3.1.4","0","None","NA","NA","NA","NA","space","None","991","NA","NA","NA","NA","126984","991","2","legacy","1024","2","48000","-16","AB_m21","141","odd","FILL_NW","KEMT","2353","343857","342249","335739","129357","NA","NA","NA","NA","324847","342746","NA","341749","NA","341741","343849","2372","344157","NA","NA","342857","2353","2353","343249","341741","2353","342857","344157","morph21_Oliver/Morris","25","51807","59","yes","1280","32"
"400","41.6666666667","41.6666666667","879.933333333","879.933333333","black","no","xpyriment","legacy","legacy","0","208","NA","uniform","55091","1000","0.0181517852281","0","undefined","0","0","59","59","59","0","59","59","59","NA","59","59","0","59","NA","59","59","0","59","NA","59","NA","59","0","0","59","59","0","59","59","60","z","10/17/18 16:18:11","The main experiment item","yes","FIN__AB__M21__7%3A10%3A17.osexp","C:\Users\ERP Testing Room\Desktop\Joanna\morph21","no","mono","no","18","no","white","no","yes","1080","legacy","59","59","C:/Users/ERP Testing Room/Desktop/Joanna/morph21/subject-141.csv","xpyriment","Jazzy James","3.1.4","0","None","NA","NA","NA","NA","space","None","989","NA","NA","NA","NA","126984","989","2","legacy","1024","2","48000","-16","AB_m21","141","odd","FILL_NW","GIKE","2353","348441","345332","346932","129357","NA","NA","NA","NA","324847","345829","NA","344832","NA","344825","346929","2372","348841","NA","NA","345940","2353","2353","346332","344825","2353","345940","348841","morph21_Oliver/Morris","25","52796","60","yes","1280","24"
"200","40.9836065574","40.9836065574","881.803278689","881.803278689","black","no","xpyriment","legacy","legacy","0","208","NA","uniform","55376","1000","0.0180583646345","0","undefined","0","0","60","60","60","0","60","60","60","NA","60","60","0","60","NA","60","60","0","60","NA","60","NA","60","0","0","60","60","0","60","60","61","z","10/17/18 16:18:11","The main experiment item","yes","FIN__AB__M21__7%3A10%3A17.osexp","C:\Users\ERP Testing Room\Desktop\Joanna\morph21","no","mono","no","18","no","white","no","yes","1080","legacy","60","60","C:/Users/ERP Testing Room/Desktop/Joanna/morph21/subject-141.csv","xpyriment","Jazzy James","3.1.4","0","None","NA","NA","NA","NA","space","None","994","NA","NA","NA","NA","126984","994","2","legacy","1024","2","48000","-16","AB_m21","141","odd","FILL_NW","CINDS","2353","351791","350191","346932","129357","NA","NA","NA","NA","324847","350688","NA","349691","NA","349684","351786","2372","351991","NA","NA","350791","2353","2353","351191","349684","2353","350791","351991","morph21_Oliver/Morris","25","53790","61","yes","1280","6"
"350","40.3225806452","40.3225806452","883.629032258","883.629032258","black","no","xpyriment","legacy","legacy","0","206","NA","uniform","52086","1000","0.0191990170103","0","undefined","0","0","61","61","61","0","61","61","61","NA","61","61","0","61","NA","61","61","0","61","NA","61","NA","61","0","0","61","61","0","61","61","62","z","10/17/18 16:18:11","The main experiment item","yes","FIN__AB__M21__7%3A10%3A17.osexp","C:\Users\ERP Testing Room\Desktop\Joanna\morph21","no","mono","no","18","no","white","no","yes","1080","legacy","61","61","C:/Users/ERP Testing Room/Desktop/Joanna/morph21/subject-141.csv","xpyriment","Jazzy James","3.1.4","0","None","NA","NA","NA","NA","space","None","995","NA","NA","NA","NA","126984","995","2","legacy","1024","2","48000","-16","AB_m21","141","odd","NW_L_SIMP","WITCHITH","2353","354807","353199","346932","129357","NA","NA","NA","NA","324847","353696","NA","352699","NA","352689","354802","2372","355158","NA","NA","353807","2353","2353","354207","352689","2353","353807","355158","morph21_Oliver/Morris","25","54785","62","yes","1280","11"
"400","39.6825396825","39.6825396825","885.285714286","885.285714286","black","no","xpyriment","legacy","legacy","0","207","NA","uniform","55639","1000","0.0179730045472","0","undefined","0","0","62","62","62","0","62","62","62","NA","62","62","0","62","NA","62","62","0","62","NA","62","NA","62","0","0","62","62","0","62","62","63","/","10/17/18 16:18:11","The main experiment item","yes","FIN__AB__M21__7%3A10%3A17.osexp","C:\Users\ERP Testing Room\Desktop\Joanna\morph21","no","mono","no","18","no","white","no","yes","1080","legacy","62","62","C:/Users/ERP Testing Room/Desktop/Joanna/morph21/subject-141.csv","xpyriment","Jazzy James","3.1.4","0","None","NA","NA","NA","NA","space","None","988","NA","NA","NA","NA","126984","988","2","legacy","1024","2","48000","-16","AB_m21","141","odd","FILL_W","QUIT","2353","359575","356458","358067","129357","NA","NA","NA","NA","324847","356955","NA","355958","NA","355953","358063","2372","359976","NA","NA","357075","2353","2353","357467","355952","2353","357075","359976","morph21_Oliver/Morris","25","55773","63","yes","1280","21"
"350","40.625","40.625","884.515625","884.515625","black","no","xpyriment","legacy","legacy","0","207","NA","uniform","65548","1000","0.0152559956063","1","undefined","1","0","63","63","63","0","63","63","63","NA","63","63","0","63","NA","63","63","0","63","NA","63","NA","63","0","0","63","63","0","63","63","64","/","10/17/18 16:18:11","The main experiment item","yes","FIN__AB__M21__7%3A10%3A17.osexp","C:\Users\ERP Testing Room\Desktop\Joanna\morph21","no","mono","no","18","no","white","no","yes","1080","legacy","63","63","C:/Users/ERP Testing Room/Desktop/Joanna/morph21/subject-141.csv","xpyriment","Jazzy James","3.1.4","0","/","NA","NA","NA","NA","space","/","836","NA","NA","NA","NA","126984","836","2","legacy","1024","2","48000","-16","AB_m21","141","odd","FILL_W","LEAK","2353","362809","361192","358067","129357","NA","NA","NA","NA","362805","361689","NA","360692","NA","360682","362805","2372","363159","NA","NA","361809","2353","2353","362209","360682","2353","361809","363159","morph21_Oliver/Morris","26","56609","64","yes","1280","9"
"400","40","40","886.153846154","886.153846154","black","no","xpyriment","legacy","legacy","0","206","NA","uniform","57341","1000","0.0174395284352","0","undefined","0","0","64","64","64","0","64","64","64","NA","64","64","0","64","NA","64","64","0","64","NA","64","NA","64","0","0","64","64","0","64","64","65","z","10/17/18 16:18:11","The main experiment item","yes","FIN__AB__M21__7%3A10%3A17.osexp","C:\Users\ERP Testing Room\Desktop\Joanna\morph21","no","mono","no","18","no","white","no","yes","1080","legacy","64","64","C:/Users/ERP Testing Room/Desktop/Joanna/morph21/subject-141.csv","xpyriment","Jazzy James","3.1.4","0","None","NA","NA","NA","NA","space","None","991","NA","NA","NA","NA","126984","991","2","legacy","1024","2","48000","-16","AB_m21","141","odd","NW_L_SIMP","POORIDY","2353","365926","364342","358067","129357","NA","NA","NA","NA","362805","364839","NA","363842","NA","363832","365917","2372","366326","NA","NA","364926","2353","2353","365317","363832","2353","364926","366326","morph21_Oliver/Morris","26","57600","65","yes","1280","13"
"400","39.3939393939","39.3939393939","887.787878788","887.787878788","black","no","xpyriment","legacy","legacy","0","206","NA","uniform","61973","1000","0.0161360592516","0","undefined","0","0","65","65","65","0","65","65","65","NA","65","65","0","65","NA","65","65","0","65","NA","65","NA","65","0","0","65","65","0","65","65","66","z","10/17/18 16:18:11","The main experiment item","yes","FIN__AB__M21__7%3A10%3A17.osexp","C:\Users\ERP Testing Room\Desktop\Joanna\morph21","no","mono","no","18","no","white","no","yes","1080","legacy","65","65","C:/Users/ERP Testing Room/Desktop/Joanna/morph21/subject-141.csv","xpyriment","Jazzy James","3.1.4","0","None","NA","NA","NA","NA","space","None","994","NA","NA","NA","NA","126984","994","2","legacy","1024","2","48000","-16","AB_m21","141","odd","NW_L_SIMP","CLASSOES","2353","370676","367534","369167","129357","NA","NA","NA","NA","362805","368031","NA","367034","NA","367026","369161","2372","371076","NA","NA","368167","2353","2353","368559","367026","2353","368167","371076","morph21_Oliver/Morris","26","58594","66","yes","1280","18"
"250","40.2985074627","40.2985074627","887.179104478","887.179104478","black","no","xpyriment","legacy","legacy","0","201","NA","uniform","66310","1000","0.0150806816468","1","undefined","1","0","66","66","66","0","66","66","66","NA","66","66","0","66","NA","66","66","0","66","NA","66","NA","66","0","0","66","66","0","66","66","67","/","10/17/18 16:18:11","The main experiment item","yes","FIN__AB__M21__7%3A10%3A17.osexp","C:\Users\ERP Testing Room\Desktop\Joanna\morph21","no","mono","no","18","no","white","no","yes","1080","legacy","66","66","C:/Users/ERP Testing Room/Desktop/Joanna/morph21/subject-141.csv","xpyriment","Jazzy James","3.1.4","0","/","NA","NA","NA","NA","space","/","847","NA","NA","NA","NA","126984","847","2","legacy","1024","2","48000","-16","AB_m21","141","odd","CW_S","PLANNER","2353","373926","372334","369167","129357","NA","NA","NA","NA","373919","372831","NA","371834","NA","371827","373919","2372","374176","NA","NA","372926","2353","2353","373318","371827","2353","372926","374176","morph21_Oliver/Morris","27","59441","67","yes","1280","22"
"300","41.1764705882","41.1764705882","887.661764706","887.661764706","black","no","xpyriment","legacy","legacy","0","207","NA","uniform","60556","1000","0.0165136402669","1","undefined","1","0","67","67","67","0","67","67","67","NA","67","67","0","67","NA","67","67","0","67","NA","67","NA","67","0","0","67","67","0","67","67","68","/","10/17/18 16:18:11","The main experiment item","yes","FIN__AB__M21__7%3A10%3A17.osexp","C:\Users\ERP Testing Room\Desktop\Joanna\morph21","no","mono","no","18","no","white","no","yes","1080","legacy","67","67","C:/Users/ERP Testing Room/Desktop/Joanna/morph21/subject-141.csv","xpyriment","Jazzy James","3.1.4","0","/","NA","NA","NA","NA","space","/","920","NA","NA","NA","NA","126984","920","2","legacy","1024","2","48000","-16","AB_m21","141","odd","FILL_W","MOURN","2353","377085","375477","369167","129357","NA","NA","NA","NA","377076","375974","NA","374977","NA","374968","377076","2372","377385","NA","NA","376085","2353","2353","376477","374967","2353","376085","377385","morph21_Oliver/Morris","28","60361","68","yes","1280","26"
"200","42.0289855072","42.0289855072","888.565217391","888.565217391","black","no","xpyriment","legacy","legacy","0","207","NA","uniform","65465","1000","0.0152753379669","1","undefined","1","0","68","68","68","0","68","68","68","NA","68","68","0","68","NA","68","68","0","68","NA","68","NA","68","0","0","68","68","0","68","68","69","/","10/17/18 16:18:11","The main experiment item","yes","FIN__AB__M21__7%3A10%3A17.osexp","C:\Users\ERP Testing Room\Desktop\Joanna\morph21","no","mono","no","18","no","white","no","yes","1080","legacy","68","68","C:/Users/ERP Testing Room/Desktop/Joanna/morph21/subject-141.csv","xpyriment","Jazzy James","3.1.4","0","/","NA","NA","NA","NA","space","/","950","NA","NA","NA","NA","126984","950","2","legacy","1024","2","48000","-16","AB_m21","141","odd","FILL_W","FLESH","2353","381819","378694","380311","129357","NA","NA","NA","NA","380301","379191","NA","378194","NA","378188","380301","2372","382019","NA","NA","379311","2353","2353","379702","378188","2353","379311","382019","morph21_Oliver/Morris","29","61311","69","yes","1280","32"
"400","42.8571428571","42.8571428571","887.757142857","887.757142857","black","no","xpyriment","legacy","legacy","0","207","NA","uniform","65919","1000","0.0151701330421","1","undefined","1","0","69","69","69","0","69","69","69","NA","69","69","0","69","NA","69","69","0","69","NA","69","NA","69","0","0","69","69","0","69","69","70","/","10/17/18 16:18:11","The main experiment item","yes","FIN__AB__M21__7%3A10%3A17.osexp","C:\Users\ERP Testing Room\Desktop\Joanna\morph21","no","mono","no","18","no","white","no","yes","1080","legacy","69","69","C:/Users/ERP Testing Room/Desktop/Joanna/morph21/subject-141.csv","xpyriment","Jazzy James","3.1.4","0","/","NA","NA","NA","NA","space","/","832","NA","NA","NA","NA","126984","832","2","legacy","1024","2","48000","-16","AB_m21","141","odd","FILL_W","CHIP","2353","384852","383261","380311","129357","NA","NA","NA","NA","384842","383758","NA","382761","NA","382755","384842","2372","385252","NA","NA","383853","2353","2353","384244","382755","2353","383852","385252","morph21_Oliver/Morris","30","62143","70","yes","1280","11"
"300","42.2535211268","42.2535211268","889.197183099","889.197183099","black","no","xpyriment","legacy","legacy","0","208","NA","uniform","64509","1000","0.0155017129393","0","undefined","0","0","70","70","70","0","70","70","70","NA","70","70","0","70","NA","70","70","0","70","NA","70","NA","70","0","0","70","70","0","70","70","71","z","10/17/18 16:18:11","The main experiment item","yes","FIN__AB__M21__7%3A10%3A17.osexp","C:\Users\ERP Testing Room\Desktop\Joanna\morph21","no","mono","no","18","no","white","no","yes","1080","legacy","70","70","C:/Users/ERP Testing Room/Desktop/Joanna/morph21/subject-141.csv","xpyriment","Jazzy James","3.1.4","0","None","NA","NA","NA","NA","space","None","990","NA","NA","NA","NA","126984","990","2","legacy","1024","2","48000","-16","AB_m21","141","odd","FILL_NW","HEEM","2353","388152","386569","380311","129357","NA","NA","NA","NA","384842","387066","NA","386069","NA","386060","388143","2372","388453","NA","NA","387153","2353","2353","387544","386060","2353","387153","388453","morph21_Oliver/Morris","30","63133","71","yes","1280","27"
"300","41.6666666667","41.6666666667","890.625","890.625","black","no","xpyriment","legacy","legacy","0","204","NA","uniform","61516","1000","0.0162559334157","0","undefined","0","0","71","71","71","0","71","71","71","NA","71","71","0","71","NA","71","71","0","71","NA","71","NA","71","0","0","71","71","0","71","71","72","z","10/17/18 16:18:11","The main experiment item","yes","FIN__AB__M21__7%3A10%3A17.osexp","C:\Users\ERP Testing Room\Desktop\Joanna\morph21","no","mono","no","18","no","white","no","yes","1080","legacy","71","71","C:/Users/ERP Testing Room/Desktop/Joanna/morph21/subject-141.csv","xpyriment","Jazzy James","3.1.4","0","None","NA","NA","NA","NA","space","None","992","NA","NA","NA","NA","126984","992","2","legacy","1024","2","48000","-16","AB_m21","141","odd","NW_L_COMP","SHEETER","2353","392770","389661","391261","129357","NA","NA","NA","NA","384842","390158","NA","389161","NA","389157","391253","2372","393071","NA","NA","390261","2353","2353","390653","389157","2353","390261","393071","morph21_Oliver/Morris","30","64125","72","yes","1280","5"
"400","41.095890411","41.095890411","891.98630137","891.98630137","black","no","xpyriment","legacy","legacy","0","205","NA","uniform","57921","1000","0.0172648952884","0","undefined","0","0","72","72","72","0","72","72","72","NA","72","72","0","72","NA","72","72","0","72","NA","72","NA","72","0","0","72","72","0","72","72","73","z","10/17/18 16:18:11","The main experiment item","yes","FIN__AB__M21__7%3A10%3A17.osexp","C:\Users\ERP Testing Room\Desktop\Joanna\morph21","no","mono","no","18","no","white","no","yes","1080","legacy","72","72","C:/Users/ERP Testing Room/Desktop/Joanna/morph21/subject-141.csv","xpyriment","Jazzy James","3.1.4","0","None","NA","NA","NA","NA","space","None","990","NA","NA","NA","NA","126984","990","2","legacy","1024","2","48000","-16","AB_m21","141","odd","NW_S_SIMP","SCHEMENELS","2353","395937","394337","391261","129357","NA","NA","NA","NA","384842","394834","NA","393837","NA","393831","395927","2372","396337","NA","NA","394937","2353","2353","395329","393831","2353","394937","396337","morph21_Oliver/Morris","30","65115","73","yes","1280","15"
"300","40.5405405405","40.5405405405","893.310810811","893.310810811","black","no","xpyriment","legacy","legacy","0","205","NA","uniform","58970","1000","0.0169577751399","0","undefined","0","0","73","73","73","0","73","73","73","NA","73","73","0","73","NA","73","73","0","73","NA","73","NA","73","0","0","73","73","0","73","73","74","z","10/17/18 16:18:11","The main experiment item","yes","FIN__AB__M21__7%3A10%3A17.osexp","C:\Users\ERP Testing Room\Desktop\Joanna\morph21","no","mono","no","18","no","white","no","yes","1080","legacy","73","73","C:/Users/ERP Testing Room/Desktop/Joanna/morph21/subject-141.csv","xpyriment","Jazzy James","3.1.4","0","None","NA","NA","NA","NA","space","None","990","NA","NA","NA","NA","126984","990","2","legacy","1024","2","48000","-16","AB_m21","141","odd","NW_S_SIMP","HEIRIG","2353","399237","397637","391261","129357","NA","NA","NA","NA","384842","398134","NA","397137","NA","397133","399227","2372","399537","NA","NA","398237","2353","2353","398629","397133","2353","398237","399537","morph21_Oliver/Morris","30","66105","74","yes","1280","3"
"400","40","40","894.64","894.64","black","no","xpyriment","legacy","legacy","0","204","NA","uniform","64289","1000","0.0155547605345","undefined","undefined","0","0","74","74","74","0","74","74","74","NA","74","74","0","74","NA","74","74","0","74","NA","74","NA","74","0","0","74","74","0","74","74","75","z","10/17/18 16:18:11","The main experiment item","yes","FIN__AB__M21__7%3A10%3A17.osexp","C:\Users\ERP Testing Room\Desktop\Joanna\morph21","no","mono","no","18","no","white","no","yes","1080","legacy","74","74","C:/Users/ERP Testing Room/Desktop/Joanna/morph21/subject-141.csv","xpyriment","Jazzy James","3.1.4","0","z","z","NA","NA","NA","space","None","0","0","NA","NA","NA","126984","993","2","legacy","1024","2","48000","-16","AB_m21","141","odd","NW_L_COMP","FLITENCE","2353","403879","400787","402371","129357","404288","NA","NA","NA","384842","401285","NA","400287","NA","400277","402364","2372","404289","NA","NA","401371","2353","2353","401763","400277","2353","401371","404279","morph21_Oliver/Morris","30","67098","75","yes","1280","3"
"350","39.4736842105","39.4736842105","895.973684211","895.973684211","black","no","xpyriment","legacy","legacy","0","201","NA","uniform","59235","1000","0.0168819110323","0","undefined","0","0","75","75","75","0","75","75","75","NA","75","75","0","75","NA","75","75","0","75","NA","75","NA","75","0","0","75","75","0","75","75","76","/","10/17/18 16:18:11","The main experiment item","yes","FIN__AB__M21__7%3A10%3A17.osexp","C:\Users\ERP Testing Room\Desktop\Joanna\morph21","no","mono","no","18","no","white","no","yes","1080","legacy","75","75","C:/Users/ERP Testing Room/Desktop/Joanna/morph21/subject-141.csv","xpyriment","Jazzy James","3.1.4","0","None","z","NA","NA","NA","space","None","996","0","NA","NA","NA","126984","996","2","legacy","1024","2","48000","-16","AB_m21","141","odd","CW_S","RICHNESS","2353","407104","405521","402371","129357","404288","NA","NA","NA","384842","406018","NA","405021","NA","405017","407101","2372","407454","NA","NA","406104","2353","2353","406504","405017","2353","406104","407454","morph21_Oliver/Morris","30","68094","76","yes","1280","45"
"300","38.961038961","38.961038961","892.87012987","892.87012987","black","no","xpyriment","legacy","legacy","0","208","NA","uniform","75527","1000","0.0132402981715","0","undefined","0","0","76","76","76","0","76","76","76","NA","76","76","0","76","NA","76","76","0","76","NA","76","NA","76","0","0","76","76","0","76","76","77","z","10/17/18 16:18:11","The main experiment item","yes","FIN__AB__M21__7%3A10%3A17.osexp","C:\Users\ERP Testing Room\Desktop\Joanna\morph21","no","mono","no","18","no","white","no","yes","1080","legacy","76","76","C:/Users/ERP Testing Room/Desktop/Joanna/morph21/subject-141.csv","xpyriment","Jazzy James","3.1.4","0","/","z","NA","NA","NA","space","/","657","0","NA","NA","NA","126984","657","2","legacy","1024","2","48000","-16","AB_m21","141","odd","FILL_NW","SCURE","2353","410381","408796","402371","129357","404288","NA","NA","NA","384842","409293","NA","408296","NA","408286","410373","2372","410681","NA","NA","409381","2353","2353","409772","408286","2353","409380","410681","morph21_Oliver/Morris","30","68751","77","yes","1280","41"
"350","38.4615384615","38.4615384615","894.141025641","894.141025641","black","no","xpyriment","legacy","legacy","0","208","NA","uniform","50000","1000","0.02","0","undefined","0","0","77","77","77","0","77","77","77","NA","77","77","0","77","NA","77","77","0","77","NA","77","NA","77","0","0","77","77","0","77","77","78","z","10/17/18 16:18:11","The main experiment item","yes","FIN__AB__M21__7%3A10%3A17.osexp","C:\Users\ERP Testing Room\Desktop\Joanna\morph21","no","mono","no","18","no","white","no","yes","1080","legacy","77","77","C:/Users/ERP Testing Room/Desktop/Joanna/morph21/subject-141.csv","xpyriment","Jazzy James","3.1.4","0","None","z","NA","NA","NA","space","None","992","0","NA","NA","NA","126984","992","2","legacy","1024","2","48000","-16","AB_m21","141","odd","FILL_NW","BLANTH","2353","415006","411897","413497","129357","404288","NA","NA","NA","384842","412394","NA","411397","NA","411387","413489","2372","415356","NA","NA","412497","2353","2353","412889","411387","2353","412497","415356","morph21_Oliver/Morris","30","69743","78","yes","1280","3"
"300","37.9746835443","37.9746835443","895.341772152","895.341772152","black","no","xpyriment","legacy","legacy","0","205","NA","uniform","55322","1000","0.0180759914681","0","undefined","0","0","78","78","78","0","78","78","78","NA","78","78","0","78","NA","78","78","0","78","NA","78","NA","78","0","0","78","78","0","78","78","79","z","10/17/18 16:18:11","The main experiment item","yes","FIN__AB__M21__7%3A10%3A17.osexp","C:\Users\ERP Testing Room\Desktop\Joanna\morph21","no","mono","no","18","no","white","no","yes","1080","legacy","78","78","C:/Users/ERP Testing Room/Desktop/Joanna/morph21/subject-141.csv","xpyriment","Jazzy James","3.1.4","0","None","z","NA","NA","NA","space","None","989","0","NA","NA","NA","126984","989","2","legacy","1024","2","48000","-16","AB_m21","141","odd","NW_S_SIMP","WARNODY","2353","418164","416539","413497","129357","404288","NA","NA","NA","384842","417036","NA","416039","NA","416033","418153","2372","418464","NA","NA","417164","2353","2353","417556","416033","2353","417164","418464","morph21_Oliver/Morris","30","70732","79","yes","1280","12"
"200","37.5","37.5","896.5125","896.5125","black","no","xpyriment","legacy","legacy","0","205","NA","uniform","63753","1000","0.0156855363669","0","undefined","0","0","79","79","79","0","79","79","79","NA","79","79","0","79","NA","79","79","0","79","NA","79","NA","79","0","0","79","79","0","79","79","80","z","10/17/18 16:18:11","The main experiment item","yes","FIN__AB__M21__7%3A10%3A17.osexp","C:\Users\ERP Testing Room\Desktop\Joanna\morph21","no","mono","no","18","no","white","no","yes","1080","legacy","79","79","C:/Users/ERP Testing Room/Desktop/Joanna/morph21/subject-141.csv","xpyriment","Jazzy James","3.1.4","0","None","z","NA","NA","NA","space","None","989","0","NA","NA","NA","126984","989","2","legacy","1024","2","48000","-16","AB_m21","141","odd","NW_S_SIMP","GUMFIL","2353","421256","419664","413497","129357","404288","NA","NA","NA","384842","420161","NA","419164","NA","419160","421245","2372","421456","NA","NA","420256","2353","2353","420648","419160","2353","420256","421456","morph21_Oliver/Morris","30","71721","80","yes","1280","2"
"250","37.037037037","37.037037037","897.654320988","897.654320988","black","no","xpyriment","legacy","legacy","0","204","NA","uniform","58140","1000","0.0171998624011","0","undefined","0","0","80","80","80","0","80","80","80","NA","80","80","0","80","NA","80","80","0","80","NA","80","NA","80","0","0","80","80","0","80","80","81","z","10/17/18 16:18:11","The main experiment item","yes","FIN__AB__M21__7%3A10%3A17.osexp","C:\Users\ERP Testing Room\Desktop\Joanna\morph21","no","mono","no","18","no","white","no","yes","1080","legacy","80","80","C:/Users/ERP Testing Room/Desktop/Joanna/morph21/subject-141.csv","xpyriment","Jazzy James","3.1.4","0","None","z","NA","NA","NA","space","None","989","0","NA","NA","NA","126984","989","2","legacy","1024","2","48000","-16","AB_m21","141","odd","NW_L_COMP","TRIPARY","2353","425690","422598","424181","129357","404288","NA","NA","NA","384842","423095","NA","422098","NA","422090","424178","2372","425940","NA","NA","423189","2353","2353","423581","422090","2353","423189","425940","morph21_Oliver/Morris","30","72710","81","yes","1280","2"
"200","36.5853658537","36.5853658537","898.780487805","898.780487805","black","no","xpyriment","legacy","legacy","0","205","NA","uniform","56668","1000","0.0176466436084","0","undefined","0","0","81","81","81","0","81","81","81","NA","81","81","0","81","NA","81","81","0","81","NA","81","NA","81","0","0","81","81","0","81","81","82","z","10/17/18 16:18:11","The main experiment item","yes","FIN__AB__M21__7%3A10%3A17.osexp","C:\Users\ERP Testing Room\Desktop\Joanna\morph21","no","mono","no","18","no","white","no","yes","1080","legacy","81","81","C:/Users/ERP Testing Room/Desktop/Joanna/morph21/subject-141.csv","xpyriment","Jazzy James","3.1.4","0","None","z","NA","NA","NA","space","None","990","0","NA","NA","NA","126984","990","2","legacy","1024","2","48000","-16","AB_m21","141","odd","NW_S_SIMP","JAWLA","2353","428874","427266","424181","129357","404288","NA","NA","NA","384842","427763","NA","426766","NA","426762","428864","2372","429074","NA","NA","427874","2353","2353","428266","426762","2353","427874","429074","morph21_Oliver/Morris","30","73700","82","yes","1280","7"
"250","36.1445783133","36.1445783133","899.915662651","899.915662651","black","no","xpyriment","legacy","legacy","0","205","NA","uniform","62536","1000","0.0159907893054","0","undefined","0","0","82","82","82","0","82","82","82","NA","82","82","0","82","NA","82","82","0","82","NA","82","NA","82","0","0","82","82","0","82","82","83","z","10/17/18 16:18:11","The main experiment item","yes","FIN__AB__M21__7%3A10%3A17.osexp","C:\Users\ERP Testing Room\Desktop\Joanna\morph21","no","mono","no","18","no","white","no","yes","1080","legacy","82","82","C:/Users/ERP Testing Room/Desktop/Joanna/morph21/subject-141.csv","xpyriment","Jazzy James","3.1.4","0","None","z","NA","NA","NA","space","None","993","0","NA","NA","NA","126984","993","2","legacy","1024","2","48000","-16","AB_m21","141","odd","NW_S_SIMP","ZOOMFIL","2353","432024","430441","424181","129357","404288","NA","NA","NA","384842","430938","NA","429941","NA","429930","432018","2372","432274","NA","NA","431024","2353","2353","431416","429930","2353","431024","432274","morph21_Oliver/Morris","30","74693","83","yes","1280","19"
"350","35.7142857143","35.7142857143","901.011904762","901.011904762","black","no","xpyriment","legacy","legacy","0","208","NA","uniform","63334","1000","0.015789307481","0","undefined","0","0","83","83","83","0","83","83","83","NA","83","83","0","83","NA","83","83","0","83","NA","83","NA","83","0","0","83","83","0","83","83","84","z","10/17/18 16:18:11","The main experiment item","yes","FIN__AB__M21__7%3A10%3A17.osexp","C:\Users\ERP Testing Room\Desktop\Joanna\morph21","no","mono","no","18","no","white","no","yes","1080","legacy","83","83","C:/Users/ERP Testing Room/Desktop/Joanna/morph21/subject-141.csv","xpyriment","Jazzy James","3.1.4","0","None","z","NA","NA","NA","space","None","992","0","NA","NA","NA","126984","992","2","legacy","1024","2","48000","-16","AB_m21","141","odd","FILL_NW","HEAS","2353","436574","433474","435066","129357","404288","NA","NA","NA","384842","433971","NA","432974","NA","432964","435059","2372","436924","NA","NA","434066","2353","2353","434458","432964","2353","434066","436924","morph21_Oliver/Morris","30","75685","84","yes","1280","26"
"400","35.2941176471","35.2941176471","902.129411765","902.129411765","black","no","xpyriment","legacy","legacy","0","201","NA","uniform","58251","1000","0.0171670872603","0","undefined","0","0","84","84","84","0","84","84","84","NA","84","84","0","84","NA","84","84","0","84","NA","84","NA","84","0","0","84","84","0","84","84","85","/","10/17/18 16:18:11","The main experiment item","yes","FIN__AB__M21__7%3A10%3A17.osexp","C:\Users\ERP Testing Room\Desktop\Joanna\morph21","no","mono","no","18","no","white","no","yes","1080","legacy","84","84","C:/Users/ERP Testing Room/Desktop/Joanna/morph21/subject-141.csv","xpyriment","Jazzy James","3.1.4","0","None","z","NA","NA","NA","space","None","996","0","NA","NA","NA","126984","996","2","legacy","1024","2","48000","-16","AB_m21","141","odd","CW_S","WIDOWED","2353","439716","438133","435066","129357","404288","NA","NA","NA","384842","438630","NA","437633","NA","437626","439712","2372","440116","NA","NA","438716","2353","2353","439116","437626","2353","438716","440116","morph21_Oliver/Morris","30","76681","85","yes","1280","7"
"300","36.0465116279","36.0465116279","901.441860465","901.441860465","black","no","xpyriment","legacy","legacy","0","201","NA","uniform","59853","1000","0.0167076002874","1","undefined","1","0","85","85","85","0","85","85","85","NA","85","85","0","85","NA","85","85","0","85","NA","85","NA","85","0","0","85","85","0","85","85","86","/","10/17/18 16:18:11","The main experiment item","yes","FIN__AB__M21__7%3A10%3A17.osexp","C:\Users\ERP Testing Room\Desktop\Joanna\morph21","no","mono","no","18","no","white","no","yes","1080","legacy","85","85","C:/Users/ERP Testing Room/Desktop/Joanna/morph21/subject-141.csv","xpyriment","Jazzy James","3.1.4","0","/","z","NA","NA","NA","space","/","843","0","NA","NA","NA","126984","843","2","legacy","1024","2","48000","-16","AB_m21","141","odd","CW_S","DESTROYER","2353","443050","441466","435066","129357","404288","NA","NA","NA","443042","441963","NA","440966","NA","440955","443042","2372","443350","NA","NA","442050","2353","2353","442441","440955","2353","442050","443350","morph21_Oliver/Morris","31","77524","86","yes","1280","14"
"200","36.7816091954","36.7816091954","899.781609195","899.781609195","black","no","xpyriment","legacy","legacy","0","202","NA","uniform","61491","1000","0.0162625424859","1","undefined","1","0","86","86","86","0","86","86","86","NA","86","86","0","86","NA","86","86","0","86","NA","86","NA","86","0","0","86","86","0","86","86","87","/","10/17/18 16:18:11","The main experiment item","yes","FIN__AB__M21__7%3A10%3A17.osexp","C:\Users\ERP Testing Room\Desktop\Joanna\morph21","no","mono","no","18","no","white","no","yes","1080","legacy","86","86","C:/Users/ERP Testing Room/Desktop/Joanna/morph21/subject-141.csv","xpyriment","Jazzy James","3.1.4","0","/","z","NA","NA","NA","space","/","757","0","NA","NA","NA","126984","757","2","legacy","1024","2","48000","-16","AB_m21","141","odd","CW_L","BOOTLESS","2353","447709","444601","446201","129357","404288","NA","NA","NA","446196","445098","NA","444101","NA","444092","446196","2372","447909","NA","NA","445201","2353","2353","445601","444092","2353","445201","447909","morph21_Oliver/Morris","32","78281","87","yes","1280","32"
"400","37.5","37.5","899.159090909","899.159090909","black","no","xpyriment","legacy","legacy","0","207","NA","uniform","59656","1000","0.0167627732332","1","undefined","1","0","87","87","87","0","87","87","87","NA","87","87","0","87","NA","87","87","0","87","NA","87","NA","87","0","0","87","87","0","87","87","88","/","10/17/18 16:18:11","The main experiment item","yes","FIN__AB__M21__7%3A10%3A17.osexp","C:\Users\ERP Testing Room\Desktop\Joanna\morph21","no","mono","no","18","no","white","no","yes","1080","legacy","87","87","C:/Users/ERP Testing Room/Desktop/Joanna/morph21/subject-141.csv","xpyriment","Jazzy James","3.1.4","0","/","z","NA","NA","NA","space","/","845","0","NA","NA","NA","126984","845","2","legacy","1024","2","48000","-16","AB_m21","141","odd","FILL_W","DRUNK","2353","450768","449134","446201","129357","404288","NA","NA","NA","450765","449631","NA","448634","NA","448627","450765","2372","451168","NA","NA","449776","2353","2353","450168","448627","2353","449776","451168","morph21_Oliver/Morris","33","79126","88","yes","1280","19"
"350","37.0786516854","37.0786516854","900.191011236","900.191011236","black","no","xpyriment","legacy","legacy","0","205","NA","uniform","58412","1000","0.0171197699103","0","undefined","0","0","88","88","88","0","88","88","88","NA","88","88","0","88","NA","88","88","0","88","NA","88","NA","88","0","0","88","88","0","88","88","89","z","10/17/18 16:18:11","The main experiment item","yes","FIN__AB__M21__7%3A10%3A17.osexp","C:\Users\ERP Testing Room\Desktop\Joanna\morph21","no","mono","no","18","no","white","no","yes","1080","legacy","88","88","C:/Users/ERP Testing Room/Desktop/Joanna/morph21/subject-141.csv","xpyriment","Jazzy James","3.1.4","0","None","z","NA","NA","NA","space","None","991","0","NA","NA","NA","126984","991","2","legacy","1024","2","48000","-16","AB_m21","141","odd","NW_S_SIMP","ACREMANT","2353","454126","452501","446201","129357","404288","NA","NA","NA","450765","452998","NA","452001","NA","451996","454117","2372","454476","NA","NA","453126","2353","2353","453518","451996","2353","453126","454476","morph21_Oliver/Morris","33","80117","89","yes","1280","16"
"350","37.7777777778","37.7777777778","899.544444444","899.544444444","black","no","xpyriment","legacy","legacy","0","201","NA","uniform","62240","1000","0.0160668380463","1","undefined","1","0","89","89","89","0","89","89","89","NA","89","89","0","89","NA","89","89","0","89","NA","89","NA","89","0","0","89","89","0","89","89","90","/","10/17/18 16:18:11","The main experiment item","yes","FIN__AB__M21__7%3A10%3A17.osexp","C:\Users\ERP Testing Room\Desktop\Joanna\morph21","no","mono","no","18","no","white","no","yes","1080","legacy","89","89","C:/Users/ERP Testing Room/Desktop/Joanna/morph21/subject-141.csv","xpyriment","Jazzy James","3.1.4","0","/","z","NA","NA","NA","space","/","842","0","NA","NA","NA","126984","842","2","legacy","1024","2","48000","-16","AB_m21","141","odd","CW_S","STRANGENESS","2353","458960","455826","457451","129357","404288","NA","NA","NA","457445","456323","NA","455326","NA","455319","457445","2372","459310","NA","NA","456451","2353","2353","456843","455319","2353","456451","459310","morph21_Oliver/Morris","34","80959","90","yes","1280","46"
"350","38.4615384615","38.4615384615","897.901098901","897.901098901","black","no","xpyriment","legacy","legacy","0","201","NA","uniform","69269","1000","0.0144364723036","1","undefined","1","0","90","90","90","0","90","90","90","NA","90","90","0","90","NA","90","90","0","90","NA","90","NA","90","0","0","90","90","0","90","90","91","/","10/17/18 16:18:11","The main experiment item","yes","FIN__AB__M21__7%3A10%3A17.osexp","C:\Users\ERP Testing Room\Desktop\Joanna\morph21","no","mono","no","18","no","white","no","yes","1080","legacy","90","90","C:/Users/ERP Testing Room/Desktop/Joanna/morph21/subject-141.csv","xpyriment","Jazzy James","3.1.4","0","/","z","NA","NA","NA","space","/","750","0","NA","NA","NA","126984","750","2","legacy","1024","2","48000","-16","AB_m21","141","odd","CW_S","BOSSY","2353","462177","460568","457451","129357","404288","NA","NA","NA","462171","461065","NA","460068","NA","460059","462171","2372","462528","NA","NA","461176","2353","2353","461569","460059","2353","461176","462528","morph21_Oliver/Morris","35","81709","91","yes","1280","49"
