"ITI","acc","accuracy","average_response_time","avg_rt","background","bidi","canvas_backend","clock_backend","color_backend","compensation","cond_trig","condtrigtime","coordinates","coroutines_cycles","coroutines_duration","coroutines_mean_cycle_duration","correct","correct_instructions_1","correct_new_keyboard_response_1","count_AB_m21","count_ITI","count_blank_screen","count_blink_screen","count_block1","count_break1","count_break2","count_break3_1","count_canvas","count_correct_trigger","count_def_chain","count_end_screen","count_fixation_1","count_getting_started","count_inc_counter","count_incorrect_trigger","count_instructions_1","count_logger","count_logscript","count_new_coroutines","count_new_inline_script","count_new_keyboard_response_1","count_reset_counter_prep","count_reset_counter_run","count_responsescreen","count_sequence","count_start_trigger","count_target_present","count_word_trigger","counter","cresp","datetime","description","disable_garbage_collection","experiment_file","experiment_path","font_bold","font_family","font_italic","font_size","font_underline","foreground","form_clicks","fullscreen","height","keyboard_backend","live_row","live_row_block1","logfile","mouse_backend","opensesame_codename","opensesame_version","repeat_cycle","response","response_break1","response_break2","response_break3_1","response_end_screen","response_instructions_1","response_new_keyboard_response_1","response_time","response_time_break1","response_time_break2","response_time_break3_1","response_time_end_screen","response_time_instructions_1","response_time_new_keyboard_response_1","round_decimals","sampler_backend","sound_buf_size","sound_channels","sound_freq","sound_sample_size","start","subject_nr","subject_parity","targ_type","target","time_AB_m21","time_ITI","time_blank_screen","time_blink_screen","time_block1","time_break1","time_break2","time_break3_1","time_canvas","time_correct_trigger","time_def_chain","time_end_screen","time_fixation_1","time_getting_started","time_inc_counter","time_incorrect_trigger","time_instructions_1","time_logger","time_logscript","time_new_inline_script","time_new_keyboard_response_1","time_reset_counter_prep","time_reset_counter_run","time_responsescreen","time_sequence","time_start_trigger","time_target_present","time_word_trigger","title","total_correct","total_response_time","total_responses","uniform_coordinates","width","word_trig"
"400","0","0","989","989","black","no","xpyriment","legacy","legacy","0","203","NA","uniform","49179","1000","0.0203338823482","0","undefined","0","0","0","0","0","0","0","0","0","NA","0","0","0","0","NA","0","0","0","0","NA","0","NA","0","0","0","0","0","0","0","0","1","z","11/28/18 16:25:59","The main experiment item","yes","FIN__AB__M21__7%3A10%3A17.osexp","C:\Users\ERP Testing Room\Desktop\Joanna\morph21","no","mono","no","18","no","white","no","yes","1080","legacy","0","0","C:/Users/ERP Testing Room/Desktop/Joanna/morph21/subject-154.csv","xpyriment","Kafkaesque Koffka","3.2.5","0","None","NA","NA","NA","NA","space","None","989","NA","NA","NA","NA","163247","989","2","legacy","1024","2","48000","-16","AB_m21","154","even","NW_S_COMP","ARIDISM","1932","168127","166469","NA","165189","NA","NA","NA","NA","NA","166966","NA","165964","NA","165887","168117","1942","168527","NA","NA","167127","1932","1932","167519","165887","1932","167127","168527","morph21_Oliver/Morris","0","989","1","yes","1280","9"
"250","0","0","989","989","black","no","xpyriment","legacy","legacy","0","203","NA","uniform","48524","1000","0.0206083587503","0","undefined","0","0","1","1","1","0","1","1","1","NA","1","1","0","1","NA","1","1","0","1","NA","1","NA","1","0","0","1","1","0","1","1","2","z","11/28/18 16:25:59","The main experiment item","yes","FIN__AB__M21__7%3A10%3A17.osexp","C:\Users\ERP Testing Room\Desktop\Joanna\morph21","no","mono","no","18","no","white","no","yes","1080","legacy","1","1","C:/Users/ERP Testing Room/Desktop/Joanna/morph21/subject-154.csv","xpyriment","Kafkaesque Koffka","3.2.5","0","None","NA","NA","NA","NA","space","None","989","NA","NA","NA","NA","163247","989","2","legacy","1024","2","48000","-16","AB_m21","154","even","NW_S_COMP","BEERER","1932","171427","169761","NA","165189","NA","NA","NA","NA","NA","170258","NA","169261","NA","169255","171417","1942","171677","NA","NA","170427","1932","1932","170819","169255","1932","170427","171677","morph21_Oliver/Morris","0","1978","2","yes","1280","5"
"250","0","0","990.666666667","990.666666667","black","no","xpyriment","legacy","legacy","0","204","NA","uniform","53808","1000","0.0185845970859","0","undefined","0","0","2","2","2","0","2","2","2","NA","2","2","0","2","NA","2","2","0","2","NA","2","NA","2","0","0","2","2","0","2","2","3","z","11/28/18 16:25:59","The main experiment item","yes","FIN__AB__M21__7%3A10%3A17.osexp","C:\Users\ERP Testing Room\Desktop\Joanna\morph21","no","mono","no","18","no","white","no","yes","1080","legacy","2","2","C:/Users/ERP Testing Room/Desktop/Joanna/morph21/subject-154.csv","xpyriment","Kafkaesque Koffka","3.2.5","0","None","NA","NA","NA","NA","space","None","994","NA","NA","NA","NA","163247","994","2","legacy","1024","2","48000","-16","AB_m21","154","even","NW_L_COMP","MUDLY","1932","176028","172844","174519","165189","NA","NA","NA","NA","NA","173341","NA","172344","NA","172337","174513","1942","176278","NA","NA","173519","1932","1932","173911","172337","1932","173519","176278","morph21_Oliver/Morris","0","2972","3","yes","1280","12"
"300","0","0","990.75","990.75","black","no","xpyriment","legacy","legacy","0","208","NA","uniform","48600","1000","0.0205761316872","0","undefined","0","0","3","3","3","0","3","3","3","NA","3","3","0","3","NA","3","3","0","3","NA","3","NA","3","0","0","3","3","0","3","3","4","z","11/28/18 16:25:59","The main experiment item","yes","FIN__AB__M21__7%3A10%3A17.osexp","C:\Users\ERP Testing Room\Desktop\Joanna\morph21","no","mono","no","18","no","white","no","yes","1080","legacy","3","3","C:/Users/ERP Testing Room/Desktop/Joanna/morph21/subject-154.csv","xpyriment","Kafkaesque Koffka","3.2.5","0","None","NA","NA","NA","NA","space","None","991","NA","NA","NA","NA","163247","991","2","legacy","1024","2","48000","-16","AB_m21","154","even","FILL_NW","DASK","1932","179219","177511","174519","165189","NA","NA","NA","NA","NA","178008","NA","177011","NA","177007","179211","1942","179520","NA","NA","178219","1932","1932","178611","177007","1932","178219","179520","morph21_Oliver/Morris","0","3963","4","yes","1280","12"
"200","0","0","990.2","990.2","black","no","xpyriment","legacy","legacy","0","206","NA","uniform","49780","1000","0.0200883889112","0","undefined","0","0","4","4","4","0","4","4","4","NA","4","4","0","4","NA","4","4","0","4","NA","4","NA","4","0","0","4","4","0","4","4","5","z","11/28/18 16:25:59","The main experiment item","yes","FIN__AB__M21__7%3A10%3A17.osexp","C:\Users\ERP Testing Room\Desktop\Joanna\morph21","no","mono","no","18","no","white","no","yes","1080","legacy","4","4","C:/Users/ERP Testing Room/Desktop/Joanna/morph21/subject-154.csv","xpyriment","Kafkaesque Koffka","3.2.5","0","None","NA","NA","NA","NA","space","None","988","NA","NA","NA","NA","163247","988","2","legacy","1024","2","48000","-16","AB_m21","154","even","NW_L_SIMP","TOWERLA","1932","182354","180653","174519","165189","NA","NA","NA","NA","NA","181150","NA","180153","NA","180146","182350","1942","182554","NA","NA","181361","1932","1932","181753","180146","1932","181361","182554","morph21_Oliver/Morris","0","4951","5","yes","1280","15"
"400","0","0","989.333333333","989.333333333","black","no","xpyriment","legacy","legacy","0","204","NA","uniform","50499","1000","0.0198023723242","0","undefined","0","0","5","5","5","0","5","5","5","NA","5","5","0","5","NA","5","5","0","5","NA","5","NA","5","0","0","5","5","0","5","5","6","z","11/28/18 16:25:59","The main experiment item","yes","FIN__AB__M21__7%3A10%3A17.osexp","C:\Users\ERP Testing Room\Desktop\Joanna\morph21","no","mono","no","18","no","white","no","yes","1080","legacy","5","5","C:/Users/ERP Testing Room/Desktop/Joanna/morph21/subject-154.csv","xpyriment","Kafkaesque Koffka","3.2.5","0","/","NA","NA","NA","NA","space","/","985","NA","NA","NA","NA","163247","985","2","legacy","1024","2","48000","-16","AB_m21","154","even","NW_L_COMP","BOILOUS","1932","186879","183671","185371","165189","NA","NA","NA","NA","NA","184168","NA","183171","NA","183166","185362","1942","187279","NA","NA","184371","1932","1932","184762","183166","1932","184371","187279","morph21_Oliver/Morris","0","5936","6","yes","1280","18"
"300","14.2857142857","14.2857142857","966.142857143","966.142857143","black","no","xpyriment","legacy","legacy","0","202","NA","uniform","54796","1000","0.0182495072633","1","undefined","1","0","6","6","6","0","6","6","6","NA","6","6","0","6","NA","6","6","0","6","NA","6","NA","6","0","0","6","6","0","6","6","7","/","11/28/18 16:25:59","The main experiment item","yes","FIN__AB__M21__7%3A10%3A17.osexp","C:\Users\ERP Testing Room\Desktop\Joanna\morph21","no","mono","no","18","no","white","no","yes","1080","legacy","6","6","C:/Users/ERP Testing Room/Desktop/Joanna/morph21/subject-154.csv","xpyriment","Kafkaesque Koffka","3.2.5","0","/","NA","NA","NA","NA","space","/","827","NA","NA","NA","NA","163247","827","2","legacy","1024","2","48000","-16","AB_m21","154","even","CW_L","DOUBTFUL","1932","190121","188471","185371","165189","NA","NA","NA","NA","190116","188968","NA","187971","NA","187962","190116","1942","190421","NA","NA","189121","1932","1932","189521","187961","1932","189121","190421","morph21_Oliver/Morris","1","6763","7","yes","1280","21"
"300","25","25","945.75","945.75","black","no","xpyriment","legacy","legacy","0","205","NA","uniform","55953","1000","0.0178721426912","1","undefined","1","0","7","7","7","0","7","7","7","NA","7","7","0","7","NA","7","7","0","7","NA","7","NA","7","0","0","7","7","0","7","7","8","z","11/28/18 16:25:59","The main experiment item","yes","FIN__AB__M21__7%3A10%3A17.osexp","C:\Users\ERP Testing Room\Desktop\Joanna\morph21","no","mono","no","18","no","white","no","yes","1080","legacy","7","7","C:/Users/ERP Testing Room/Desktop/Joanna/morph21/subject-154.csv","xpyriment","Kafkaesque Koffka","3.2.5","0","z","NA","NA","NA","NA","space","z","803","NA","NA","NA","NA","163247","803","2","legacy","1024","2","48000","-16","AB_m21","154","even","NW_S_SIMP","TILTADY","1932","193329","191613","185371","165189","NA","NA","NA","NA","193319","192110","NA","191113","NA","191109","193319","1942","193629","NA","NA","192329","1932","1932","192721","191109","1932","192329","193629","morph21_Oliver/Morris","2","7566","8","yes","1280","17"
"200","33.3333333333","33.3333333333","949.555555556","949.555555556","black","no","xpyriment","legacy","legacy","0","205","NA","uniform","54359","1000","0.0183962177376","1","undefined","1","0","8","8","8","0","8","8","8","NA","8","8","0","8","NA","8","8","0","8","NA","8","NA","8","0","0","8","8","0","8","8","9","z","11/28/18 16:25:59","The main experiment item","yes","FIN__AB__M21__7%3A10%3A17.osexp","C:\Users\ERP Testing Room\Desktop\Joanna\morph21","no","mono","no","18","no","white","no","yes","1080","legacy","8","8","C:/Users/ERP Testing Room/Desktop/Joanna/morph21/subject-154.csv","xpyriment","Kafkaesque Koffka","3.2.5","0","z","NA","NA","NA","NA","space","z","980","NA","NA","NA","NA","163247","980","2","legacy","1024","2","48000","-16","AB_m21","154","even","NW_S_SIMP","THRILLANGE","1932","197988","194829","196479","165189","NA","NA","NA","NA","196473","195327","NA","194329","NA","194323","196473","1942","198188","NA","NA","195480","1932","1932","195871","194323","1932","195479","198188","morph21_Oliver/Morris","3","8546","9","yes","1280","22"
"350","30","30","919.3","919.3","black","no","xpyriment","legacy","legacy","0","208","NA","uniform","60397","1000","0.0165571137639","0","undefined","0","0","9","9","9","0","9","9","9","NA","9","9","0","9","NA","9","9","0","9","NA","9","NA","9","0","0","9","9","0","9","9","10","z","11/28/18 16:25:59","The main experiment item","yes","FIN__AB__M21__7%3A10%3A17.osexp","C:\Users\ERP Testing Room\Desktop\Joanna\morph21","no","mono","no","18","no","white","no","yes","1080","legacy","9","9","C:/Users/ERP Testing Room/Desktop/Joanna/morph21/subject-154.csv","xpyriment","Kafkaesque Koffka","3.2.5","0","/","NA","NA","NA","NA","space","/","647","NA","NA","NA","NA","163247","647","2","legacy","1024","2","48000","-16","AB_m21","154","even","FILL_NW","KRAISE","1932","201022","199364","196479","165189","NA","NA","NA","NA","196473","199861","NA","198863","NA","198855","201019","1942","201373","NA","NA","200022","1932","1932","200422","198855","1932","200022","201373","morph21_Oliver/Morris","3","9193","10","yes","1280","33"
"250","36.3636363636","36.3636363636","921.454545455","921.454545455","black","no","xpyriment","legacy","legacy","0","206","NA","uniform","52068","1000","0.0192056541446","1","undefined","1","0","10","10","10","0","10","10","10","NA","10","10","0","10","NA","10","10","0","10","NA","10","NA","10","0","0","10","10","0","10","10","11","z","11/28/18 16:25:59","The main experiment item","yes","FIN__AB__M21__7%3A10%3A17.osexp","C:\Users\ERP Testing Room\Desktop\Joanna\morph21","no","mono","no","18","no","white","no","yes","1080","legacy","10","10","C:/Users/ERP Testing Room/Desktop/Joanna/morph21/subject-154.csv","xpyriment","Kafkaesque Koffka","3.2.5","0","z","NA","NA","NA","NA","space","z","943","NA","NA","NA","NA","163247","943","2","legacy","1024","2","48000","-16","AB_m21","154","even","NW_L_SIMP","SHOOTMANT","1932","204181","202489","196479","165189","NA","NA","NA","NA","204174","202986","NA","201989","NA","201985","204174","1942","204431","NA","NA","203181","1932","1932","203572","201985","1932","203181","204431","morph21_Oliver/Morris","4","10136","11","yes","1280","16"
"300","41.6666666667","41.6666666667","911","911","black","no","xpyriment","legacy","legacy","0","208","NA","uniform","59469","1000","0.0168154836974","1","undefined","1","0","11","11","11","0","11","11","11","NA","11","11","0","11","NA","11","11","0","11","NA","11","NA","11","0","0","11","11","0","11","11","12","z","11/28/18 16:25:59","The main experiment item","yes","FIN__AB__M21__7%3A10%3A17.osexp","C:\Users\ERP Testing Room\Desktop\Joanna\morph21","no","mono","no","18","no","white","no","yes","1080","legacy","11","11","C:/Users/ERP Testing Room/Desktop/Joanna/morph21/subject-154.csv","xpyriment","Kafkaesque Koffka","3.2.5","0","z","NA","NA","NA","NA","space","z","796","NA","NA","NA","NA","163247","796","2","legacy","1024","2","48000","-16","AB_m21","154","even","FILL_NW","KEMT","1932","208764","205598","207256","165189","NA","NA","NA","NA","207252","206095","NA","205098","NA","205089","207252","1942","209065","NA","NA","206264","1932","1932","206656","205088","1932","206264","209065","morph21_Oliver/Morris","5","10932","12","yes","1280","32"
"350","46.1538461538","46.1538461538","894.846153846","894.846153846","black","no","xpyriment","legacy","legacy","0","203","NA","uniform","62891","1000","0.0159005263074","1","undefined","1","0","12","12","12","0","12","12","12","NA","12","12","0","12","NA","12","12","0","12","NA","12","NA","12","0","0","12","12","0","12","12","13","z","11/28/18 16:25:59","The main experiment item","yes","FIN__AB__M21__7%3A10%3A17.osexp","C:\Users\ERP Testing Room\Desktop\Joanna\morph21","no","mono","no","18","no","white","no","yes","1080","legacy","12","12","C:/Users/ERP Testing Room/Desktop/Joanna/morph21/subject-154.csv","xpyriment","Kafkaesque Koffka","3.2.5","0","z","NA","NA","NA","NA","space","z","701","NA","NA","NA","NA","163247","701","2","legacy","1024","2","48000","-16","AB_m21","154","even","NW_S_COMP","EJECTENCE","1932","212031","210373","207256","165189","NA","NA","NA","NA","212026","210870","NA","209873","NA","209862","212026","1942","212381","NA","NA","211031","1932","1932","211431","209862","1932","211031","212381","morph21_Oliver/Morris","6","11633","13","yes","1280","20"
"200","50","50","878.214285714","878.214285714","black","no","xpyriment","legacy","legacy","0","208","NA","uniform","60614","1000","0.0164978387831","1","undefined","1","0","13","13","13","0","13","13","13","NA","13","13","0","13","NA","13","13","0","13","NA","13","NA","13","0","0","13","13","0","13","13","14","z","11/28/18 16:25:59","The main experiment item","yes","FIN__AB__M21__7%3A10%3A17.osexp","C:\Users\ERP Testing Room\Desktop\Joanna\morph21","no","mono","no","18","no","white","no","yes","1080","legacy","13","13","C:/Users/ERP Testing Room/Desktop/Joanna/morph21/subject-154.csv","xpyriment","Kafkaesque Koffka","3.2.5","0","z","NA","NA","NA","NA","space","z","662","NA","NA","NA","NA","163247","662","2","legacy","1024","2","48000","-16","AB_m21","154","even","FILL_NW","VUNKS","1932","215206","213540","207256","165189","NA","NA","NA","NA","215202","214037","NA","213040","NA","213033","215202","1942","215406","NA","NA","214206","1932","1932","214606","213033","1932","214206","215406","morph21_Oliver/Morris","7","12295","14","yes","1280","49"
"250","53.3333333333","53.3333333333","865.866666667","865.866666667","black","no","xpyriment","legacy","legacy","0","201","NA","uniform","63044","1000","0.0158619376943","1","undefined","1","0","14","14","14","0","14","14","14","NA","14","14","0","14","NA","14","14","0","14","NA","14","NA","14","0","0","14","14","0","14","14","15","/","11/28/18 16:25:59","The main experiment item","yes","FIN__AB__M21__7%3A10%3A17.osexp","C:\Users\ERP Testing Room\Desktop\Joanna\morph21","no","mono","no","18","no","white","no","yes","1080","legacy","14","14","C:/Users/ERP Testing Room/Desktop/Joanna/morph21/subject-154.csv","xpyriment","Kafkaesque Koffka","3.2.5","0","/","NA","NA","NA","NA","space","/","693","NA","NA","NA","NA","163247","693","2","legacy","1024","2","48000","-16","AB_m21","154","even","CW_S","HARMLESS","1932","219733","216548","218224","165189","NA","NA","NA","NA","218218","217045","NA","216048","NA","216041","218218","1942","219983","NA","NA","217224","1932","1932","217616","216041","1932","217224","219983","morph21_Oliver/Morris","8","12988","15","yes","1280","29"
"300","56.25","56.25","852.375","852.375","black","no","xpyriment","legacy","legacy","0","205","NA","uniform","59123","1000","0.016913891379","1","undefined","1","0","15","15","15","0","15","15","15","NA","15","15","0","15","NA","15","15","0","15","NA","15","NA","15","0","0","15","15","0","15","15","16","z","11/28/18 16:25:59","The main experiment item","yes","FIN__AB__M21__7%3A10%3A17.osexp","C:\Users\ERP Testing Room\Desktop\Joanna\morph21","no","mono","no","18","no","white","no","yes","1080","legacy","15","15","C:/Users/ERP Testing Room/Desktop/Joanna/morph21/subject-154.csv","xpyriment","Kafkaesque Koffka","3.2.5","0","z","NA","NA","NA","NA","space","z","650","NA","NA","NA","NA","163247","650","2","legacy","1024","2","48000","-16","AB_m21","154","even","NW_S_SIMP","NEXTNELS","1932","222874","221174","218224","165189","NA","NA","NA","NA","222865","221671","NA","220674","NA","220668","222865","1942","223175","NA","NA","221874","1932","1932","222266","220667","1932","221874","223175","morph21_Oliver/Morris","9","13638","16","yes","1280","9"
"300","58.8235294118","58.8235294118","845.470588235","845.470588235","black","no","xpyriment","legacy","legacy","0","208","NA","uniform","60954","1000","0.0164058142206","1","undefined","1","0","16","16","16","0","16","16","16","NA","16","16","0","16","NA","16","16","0","16","NA","16","NA","16","0","0","16","16","0","16","16","17","z","11/28/18 16:25:59","The main experiment item","yes","FIN__AB__M21__7%3A10%3A17.osexp","C:\Users\ERP Testing Room\Desktop\Joanna\morph21","no","mono","no","18","no","white","no","yes","1080","legacy","16","16","C:/Users/ERP Testing Room/Desktop/Joanna/morph21/subject-154.csv","xpyriment","Kafkaesque Koffka","3.2.5","0","z","NA","NA","NA","NA","space","z","735","NA","NA","NA","NA","163247","735","2","legacy","1024","2","48000","-16","AB_m21","154","even","FILL_NW","VOOFS","1932","226149","224449","218224","165189","NA","NA","NA","NA","226144","224947","NA","223949","NA","223938","226144","1942","226449","NA","NA","225149","1932","1932","225541","223938","1932","225149","226449","morph21_Oliver/Morris","10","14373","17","yes","1280","48"
"300","61.1111111111","61.1111111111","839.611111111","839.611111111","black","no","xpyriment","legacy","legacy","0","207","NA","uniform","60614","1000","0.0164978387831","1","undefined","1","0","17","17","17","0","17","17","17","NA","17","17","0","17","NA","17","17","0","17","NA","17","NA","17","0","0","17","17","0","17","17","18","/","11/28/18 16:25:59","The main experiment item","yes","FIN__AB__M21__7%3A10%3A17.osexp","C:\Users\ERP Testing Room\Desktop\Joanna\morph21","no","mono","no","18","no","white","no","yes","1080","legacy","17","17","C:/Users/ERP Testing Room/Desktop/Joanna/morph21/subject-154.csv","xpyriment","Kafkaesque Koffka","3.2.5","0","/","NA","NA","NA","NA","space","/","740","NA","NA","NA","NA","163247","740","2","legacy","1024","2","48000","-16","AB_m21","154","even","FILL_W","BALD","1932","230716","227541","229208","165189","NA","NA","NA","NA","229205","228038","NA","227041","NA","227035","229205","1942","231016","NA","NA","228216","1932","1932","228608","227035","1932","228216","231016","morph21_Oliver/Morris","11","15113","18","yes","1280","3"
"400","57.8947368421","57.8947368421","847.684210526","847.684210526","black","no","xpyriment","legacy","legacy","0","204","NA","uniform","50921","1000","0.019638263192","0","undefined","0","0","18","18","18","0","18","18","18","NA","18","18","0","18","NA","18","18","0","18","NA","18","NA","18","0","0","18","18","0","18","18","19","z","11/28/18 16:25:59","The main experiment item","yes","FIN__AB__M21__7%3A10%3A17.osexp","C:\Users\ERP Testing Room\Desktop\Joanna\morph21","no","mono","no","18","no","white","no","yes","1080","legacy","18","18","C:/Users/ERP Testing Room/Desktop/Joanna/morph21/subject-154.csv","xpyriment","Kafkaesque Koffka","3.2.5","0","None","NA","NA","NA","NA","space","None","993","NA","NA","NA","NA","163247","993","2","legacy","1024","2","48000","-16","AB_m21","154","even","NW_L_COMP","ANGELISH","1932","233941","232250","229208","165189","NA","NA","NA","NA","229205","232747","NA","231750","NA","231742","233935","1942","234342","NA","NA","232942","1932","1932","233333","231742","1932","232941","234342","morph21_Oliver/Morris","11","16106","19","yes","1280","7"
"250","60","60","839.4","839.4","black","no","xpyriment","legacy","legacy","0","207","NA","uniform","62874","1000","0.0159048255241","1","undefined","1","0","19","19","19","0","19","19","19","NA","19","19","0","19","NA","19","19","0","19","NA","19","NA","19","0","0","19","19","0","19","19","20","/","11/28/18 16:25:59","The main experiment item","yes","FIN__AB__M21__7%3A10%3A17.osexp","C:\Users\ERP Testing Room\Desktop\Joanna\morph21","no","mono","no","18","no","white","no","yes","1080","legacy","19","19","C:/Users/ERP Testing Room/Desktop/Joanna/morph21/subject-154.csv","xpyriment","Kafkaesque Koffka","3.2.5","0","/","NA","NA","NA","NA","space","/","682","NA","NA","NA","NA","163247","682","2","legacy","1024","2","48000","-16","AB_m21","154","even","FILL_W","COOK","1932","237243","235534","229208","165189","NA","NA","NA","NA","237239","236031","NA","235034","NA","235027","237239","1942","237493","NA","NA","236251","1932","1932","236642","235027","1932","236251","237493","morph21_Oliver/Morris","12","16788","20","yes","1280","38"
"250","57.1428571429","57.1428571429","833.095238095","833.095238095","black","no","xpyriment","legacy","legacy","0","207","NA","uniform","62766","1000","0.0159321925883","0","undefined","0","0","20","20","20","0","20","20","20","NA","20","20","0","20","NA","20","20","0","20","NA","20","NA","20","0","0","20","20","0","20","20","21","/","11/28/18 16:25:59","The main experiment item","yes","FIN__AB__M21__7%3A10%3A17.osexp","C:\Users\ERP Testing Room\Desktop\Joanna\morph21","no","mono","no","18","no","white","no","yes","1080","legacy","20","20","C:/Users/ERP Testing Room/Desktop/Joanna/morph21/subject-154.csv","xpyriment","Kafkaesque Koffka","3.2.5","0","z","NA","NA","NA","NA","space","z","707","NA","NA","NA","NA","163247","707","2","legacy","1024","2","48000","-16","AB_m21","154","even","FILL_W","SPLICE","1932","241901","238718","240393","165189","NA","NA","NA","NA","237239","239215","NA","238218","NA","238207","240385","1942","242151","NA","NA","239393","1932","1932","239784","238207","1932","239393","242151","morph21_Oliver/Morris","12","17495","21","yes","1280","22"
"250","59.0909090909","59.0909090909","838.136363636","838.136363636","black","no","xpyriment","legacy","legacy","0","207","NA","uniform","46815","1000","0.0213606749973","1","undefined","1","0","21","21","21","0","21","21","21","NA","21","21","0","21","NA","21","21","0","21","NA","21","NA","21","0","0","21","21","0","21","21","22","/","11/28/18 16:25:59","The main experiment item","yes","FIN__AB__M21__7%3A10%3A17.osexp","C:\Users\ERP Testing Room\Desktop\Joanna\morph21","no","mono","no","18","no","white","no","yes","1080","legacy","21","21","C:/Users/ERP Testing Room/Desktop/Joanna/morph21/subject-154.csv","xpyriment","Kafkaesque Koffka","3.2.5","0","/","NA","NA","NA","NA","space","/","944","NA","NA","NA","NA","163247","944","2","legacy","1024","2","48000","-16","AB_m21","154","even","FILL_W","SUIT","1932","245076","243426","240393","165189","NA","NA","NA","NA","245070","243923","NA","242926","NA","242916","245070","1942","245326","NA","NA","244076","1932","1932","244468","242916","1932","244076","245326","morph21_Oliver/Morris","13","18439","22","yes","1280","49"
"350","60.8695652174","60.8695652174","836.304347826","836.304347826","black","no","xpyriment","legacy","legacy","0","201","NA","uniform","58483","1000","0.0170989860301","1","undefined","1","0","22","22","22","0","22","22","22","NA","22","22","0","22","NA","22","22","0","22","NA","22","NA","22","0","0","22","22","0","22","22","23","/","11/28/18 16:25:59","The main experiment item","yes","FIN__AB__M21__7%3A10%3A17.osexp","C:\Users\ERP Testing Room\Desktop\Joanna\morph21","no","mono","no","18","no","white","no","yes","1080","legacy","22","22","C:/Users/ERP Testing Room/Desktop/Joanna/morph21/subject-154.csv","xpyriment","Kafkaesque Koffka","3.2.5","0","/","NA","NA","NA","NA","space","/","796","NA","NA","NA","NA","163247","796","2","legacy","1024","2","48000","-16","AB_m21","154","even","CW_S","CHILLY","1932","248168","246476","240393","165189","NA","NA","NA","NA","248159","246974","NA","245976","NA","245972","248159","1942","248518","NA","NA","247168","1932","1932","247560","245972","1932","247168","248518","morph21_Oliver/Morris","14","19235","23","yes","1280","48"
"350","62.5","62.5","833.708333333","833.708333333","black","no","xpyriment","legacy","legacy","0","203","NA","uniform","58988","1000","0.0169526005289","1","undefined","1","0","23","23","23","0","23","23","23","NA","23","23","0","23","NA","23","23","0","23","NA","23","NA","23","0","0","23","23","0","23","23","24","z","11/28/18 16:25:59","The main experiment item","yes","FIN__AB__M21__7%3A10%3A17.osexp","C:\Users\ERP Testing Room\Desktop\Joanna\morph21","no","mono","no","18","no","white","no","yes","1080","legacy","23","23","C:/Users/ERP Testing Room/Desktop/Joanna/morph21/subject-154.csv","xpyriment","Kafkaesque Koffka","3.2.5","0","z","NA","NA","NA","NA","space","z","774","NA","NA","NA","NA","163247","774","2","legacy","1024","2","48000","-16","AB_m21","154","even","NW_S_COMP","WELDIC","1932","252828","249635","251318","165189","NA","NA","NA","NA","251313","250132","NA","249135","NA","249123","251313","1942","253178","NA","NA","250318","1932","1932","250718","249123","1932","250318","253178","morph21_Oliver/Morris","15","20009","24","yes","1280","21"
"250","64","64","832.12","832.12","black","no","xpyriment","legacy","legacy","0","202","NA","uniform","53639","1000","0.0186431514383","1","undefined","1","0","24","24","24","0","24","24","24","NA","24","24","0","24","NA","24","24","0","24","NA","24","NA","24","0","0","24","24","0","24","24","25","/","11/28/18 16:25:59","The main experiment item","yes","FIN__AB__M21__7%3A10%3A17.osexp","C:\Users\ERP Testing Room\Desktop\Joanna\morph21","no","mono","no","18","no","white","no","yes","1080","legacy","24","24","C:/Users/ERP Testing Room/Desktop/Joanna/morph21/subject-154.csv","xpyriment","Kafkaesque Koffka","3.2.5","0","/","NA","NA","NA","NA","space","/","794","NA","NA","NA","NA","163247","794","2","legacy","1024","2","48000","-16","AB_m21","154","even","CW_L","CREAMY","1932","255986","254328","251318","165189","NA","NA","NA","NA","255978","254825","NA","253828","NA","253815","255978","1942","256236","NA","NA","254986","1932","1932","255378","253815","1932","254986","256236","morph21_Oliver/Morris","16","20803","25","yes","1280","49"
"300","65.3846153846","65.3846153846","828.269230769","828.269230769","black","no","xpyriment","legacy","legacy","0","205","NA","uniform","62230","1000","0.0160694198939","1","undefined","1","0","25","25","25","0","25","25","25","NA","25","25","0","25","NA","25","25","0","25","NA","25","NA","25","0","0","25","25","0","25","25","26","z","11/28/18 16:25:59","The main experiment item","yes","FIN__AB__M21__7%3A10%3A17.osexp","C:\Users\ERP Testing Room\Desktop\Joanna\morph21","no","mono","no","18","no","white","no","yes","1080","legacy","25","25","C:/Users/ERP Testing Room/Desktop/Joanna/morph21/subject-154.csv","xpyriment","Kafkaesque Koffka","3.2.5","0","z","NA","NA","NA","NA","space","z","732","NA","NA","NA","NA","163247","732","2","legacy","1024","2","48000","-16","AB_m21","154","even","NW_S_SIMP","HELMETOES","1932","259128","257428","251318","165189","NA","NA","NA","NA","259118","257925","NA","256928","NA","256920","259118","1942","259428","NA","NA","258128","1932","1932","258519","256919","1932","258128","259428","morph21_Oliver/Morris","17","21535","26","yes","1280","14"
"350","66.6666666667","66.6666666667","822.925925926","822.925925926","black","no","xpyriment","legacy","legacy","0","202","NA","uniform","60920","1000","0.0164149704531","1","undefined","1","0","26","26","26","0","26","26","26","NA","26","26","0","26","NA","26","26","0","26","NA","26","NA","26","0","0","26","26","0","26","26","27","/","11/28/18 16:25:59","The main experiment item","yes","FIN__AB__M21__7%3A10%3A17.osexp","C:\Users\ERP Testing Room\Desktop\Joanna\morph21","no","mono","no","18","no","white","no","yes","1080","legacy","26","26","C:/Users/ERP Testing Room/Desktop/Joanna/morph21/subject-154.csv","xpyriment","Kafkaesque Koffka","3.2.5","0","/","NA","NA","NA","NA","space","/","684","NA","NA","NA","NA","163247","684","2","legacy","1024","2","48000","-16","AB_m21","154","even","CW_L","KICKING","1932","263820","260653","262311","165189","NA","NA","NA","NA","262308","261150","NA","260153","NA","260144","262308","1942","264170","NA","NA","261320","1932","1932","261711","260144","1932","261320","264170","morph21_Oliver/Morris","18","22219","27","yes","1280","23"
"250","67.8571428571","67.8571428571","813.357142857","813.357142857","black","no","xpyriment","legacy","legacy","0","207","NA","uniform","62235","1000","0.0160681288664","1","undefined","1","0","27","27","27","0","27","27","27","NA","27","27","0","27","NA","27","27","0","27","NA","27","NA","27","0","0","27","27","0","27","27","28","/","11/28/18 16:25:59","The main experiment item","yes","FIN__AB__M21__7%3A10%3A17.osexp","C:\Users\ERP Testing Room\Desktop\Joanna\morph21","no","mono","no","18","no","white","no","yes","1080","legacy","27","27","C:/Users/ERP Testing Room/Desktop/Joanna/morph21/subject-154.csv","xpyriment","Kafkaesque Koffka","3.2.5","0","/","NA","NA","NA","NA","space","/","555","NA","NA","NA","NA","163247","555","2","legacy","1024","2","48000","-16","AB_m21","154","even","FILL_W","TASTE","1932","267137","265428","262311","165189","NA","NA","NA","NA","267126","265925","NA","264928","NA","264920","267126","1942","267387","NA","NA","266137","1932","1932","266528","264920","1932","266137","267387","morph21_Oliver/Morris","19","22774","28","yes","1280","34"
"400","68.9655172414","68.9655172414","814.172413793","814.172413793","black","no","xpyriment","legacy","legacy","0","208","NA","uniform","51924","1000","0.0192589168785","1","undefined","1","0","28","28","28","0","28","28","28","NA","28","28","0","28","NA","28","28","0","28","NA","28","NA","28","0","0","28","28","0","28","28","29","z","11/28/18 16:25:59","The main experiment item","yes","FIN__AB__M21__7%3A10%3A17.osexp","C:\Users\ERP Testing Room\Desktop\Joanna\morph21","no","mono","no","18","no","white","no","yes","1080","legacy","28","28","C:/Users/ERP Testing Room/Desktop/Joanna/morph21/subject-154.csv","xpyriment","Kafkaesque Koffka","3.2.5","0","z","NA","NA","NA","NA","space","z","837","NA","NA","NA","NA","163247","837","2","legacy","1024","2","48000","-16","AB_m21","154","even","FILL_NW","HEND","1932","270279","268595","262311","165189","NA","NA","NA","NA","270277","269092","NA","268095","NA","268087","270277","1942","270679","NA","NA","269288","1932","1932","269679","268087","1932","269288","270679","morph21_Oliver/Morris","20","23611","29","yes","1280","28"
"200","70","70","809.5","809.5","black","no","xpyriment","legacy","legacy","0","207","NA","uniform","59861","1000","0.0167053674346","1","undefined","1","0","29","29","29","0","29","29","29","NA","29","29","0","29","NA","29","29","0","29","NA","29","NA","29","0","0","29","29","0","29","29","30","/","11/28/18 16:25:59","The main experiment item","yes","FIN__AB__M21__7%3A10%3A17.osexp","C:\Users\ERP Testing Room\Desktop\Joanna\morph21","no","mono","no","18","no","white","no","yes","1080","legacy","29","29","C:/Users/ERP Testing Room/Desktop/Joanna/morph21/subject-154.csv","xpyriment","Kafkaesque Koffka","3.2.5","0","/","NA","NA","NA","NA","space","/","674","NA","NA","NA","NA","163247","674","2","legacy","1024","2","48000","-16","AB_m21","154","even","FILL_W","FLOAT","1932","275046","271838","273538","165189","NA","NA","NA","NA","273533","272335","NA","271338","NA","271332","273533","1942","275246","NA","NA","272538","1932","1932","272938","271332","1932","272538","275246","morph21_Oliver/Morris","21","24285","30","yes","1280","30"
"250","70.9677419355","70.9677419355","801.258064516","801.258064516","black","no","xpyriment","legacy","legacy","0","202","NA","uniform","64530","1000","0.0154966682163","1","undefined","1","0","30","30","30","0","30","30","30","NA","30","30","0","30","NA","30","30","0","30","NA","30","NA","30","0","0","30","30","0","30","30","31","/","11/28/18 16:25:59","The main experiment item","yes","FIN__AB__M21__7%3A10%3A17.osexp","C:\Users\ERP Testing Room\Desktop\Joanna\morph21","no","mono","no","18","no","white","no","yes","1080","legacy","30","30","C:/Users/ERP Testing Room/Desktop/Joanna/morph21/subject-154.csv","xpyriment","Kafkaesque Koffka","3.2.5","0","/","NA","NA","NA","NA","space","/","554","NA","NA","NA","NA","163247","554","2","legacy","1024","2","48000","-16","AB_m21","154","even","CW_L","STRIKER","1932","278130","276438","273538","165189","NA","NA","NA","NA","278121","276935","NA","275938","NA","275934","278121","1942","278380","NA","NA","277130","1932","1932","277521","275934","1932","277130","278380","morph21_Oliver/Morris","22","24839","31","yes","1280","17"
"200","71.875","71.875","796.4375","796.4375","black","no","xpyriment","legacy","legacy","0","201","NA","uniform","65178","1000","0.0153426002639","1","undefined","1","0","31","31","31","0","31","31","31","NA","31","31","0","31","NA","31","31","0","31","NA","31","NA","31","0","0","31","31","0","31","31","32","/","11/28/18 16:25:59","The main experiment item","yes","FIN__AB__M21__7%3A10%3A17.osexp","C:\Users\ERP Testing Room\Desktop\Joanna\morph21","no","mono","no","18","no","white","no","yes","1080","legacy","31","31","C:/Users/ERP Testing Room/Desktop/Joanna/morph21/subject-154.csv","xpyriment","Kafkaesque Koffka","3.2.5","0","/","NA","NA","NA","NA","space","/","647","NA","NA","NA","NA","163247","647","2","legacy","1024","2","48000","-16","AB_m21","154","even","CW_S","THRUSTER","1932","281205","279505","273538","165189","NA","NA","NA","NA","281196","280002","NA","279005","NA","279002","281196","1942","281405","NA","NA","280205","1932","1932","280596","279002","1932","280205","281405","morph21_Oliver/Morris","23","25486","32","yes","1280","24"
"200","72.7272727273","72.7272727273","788.151515152","788.151515152","black","no","xpyriment","legacy","legacy","0","201","NA","uniform","66583","1000","0.0150188486551","1","undefined","1","0","32","32","32","0","32","32","32","NA","32","32","0","32","NA","32","32","0","32","NA","32","NA","32","0","0","32","32","0","32","32","33","/","11/28/18 16:25:59","The main experiment item","yes","FIN__AB__M21__7%3A10%3A17.osexp","C:\Users\ERP Testing Room\Desktop\Joanna\morph21","no","mono","no","18","no","white","no","yes","1080","legacy","32","32","C:/Users/ERP Testing Room/Desktop/Joanna/morph21/subject-154.csv","xpyriment","Kafkaesque Koffka","3.2.5","0","/","NA","NA","NA","NA","space","/","523","NA","NA","NA","NA","163247","523","2","legacy","1024","2","48000","-16","AB_m21","154","even","CW_S","LOCALLY","1932","285813","282588","284305","165189","NA","NA","NA","NA","284301","283085","NA","282088","NA","282080","284301","1942","286014","NA","NA","283305","1932","1932","283705","282080","1932","283305","286014","morph21_Oliver/Morris","24","26009","33","yes","1280","37"
"400","73.5294117647","73.5294117647","781.794117647","781.794117647","black","no","xpyriment","legacy","legacy","0","202","NA","uniform","64463","1000","0.01551277477","1","undefined","1","0","33","33","33","0","33","33","33","NA","33","33","0","33","NA","33","33","0","33","NA","33","NA","33","0","0","33","33","0","33","33","34","/","11/28/18 16:25:59","The main experiment item","yes","FIN__AB__M21__7%3A10%3A17.osexp","C:\Users\ERP Testing Room\Desktop\Joanna\morph21","no","mono","no","18","no","white","no","yes","1080","legacy","33","33","C:/Users/ERP Testing Room/Desktop/Joanna/morph21/subject-154.csv","xpyriment","Kafkaesque Koffka","3.2.5","0","/","NA","NA","NA","NA","space","/","572","NA","NA","NA","NA","163247","572","2","legacy","1024","2","48000","-16","AB_m21","154","even","CW_L","CLEANER","1932","288864","287156","284305","165189","NA","NA","NA","NA","288857","287653","NA","286655","NA","286645","288857","1942","289264","NA","NA","287865","1932","1932","288256","286645","1932","287864","289264","morph21_Oliver/Morris","25","26581","34","yes","1280","15"
"200","74.2857142857","74.2857142857","771.828571429","771.828571429","black","no","xpyriment","legacy","legacy","0","207","NA","uniform","69869","1000","0.0143124991055","1","undefined","1","0","34","34","34","0","34","34","34","NA","34","34","0","34","NA","34","34","0","34","NA","34","NA","34","0","0","34","34","0","34","34","35","/","11/28/18 16:25:59","The main experiment item","yes","FIN__AB__M21__7%3A10%3A17.osexp","C:\Users\ERP Testing Room\Desktop\Joanna\morph21","no","mono","no","18","no","white","no","yes","1080","legacy","34","34","C:/Users/ERP Testing Room/Desktop/Joanna/morph21/subject-154.csv","xpyriment","Kafkaesque Koffka","3.2.5","0","/","NA","NA","NA","NA","space","/","433","NA","NA","NA","NA","163247","433","2","legacy","1024","2","48000","-16","AB_m21","154","even","FILL_W","FLESH","1932","292131","290423","284305","165189","NA","NA","NA","NA","292124","290920","NA","289923","NA","289917","292124","1942","292331","NA","NA","291131","1932","1932","291523","289917","1932","291131","292331","morph21_Oliver/Morris","26","27014","35","yes","1280","32"
"200","75","75","767.194444444","767.194444444","black","no","xpyriment","legacy","legacy","0","208","NA","uniform","62445","1000","0.0160140924013","1","undefined","1","0","35","35","35","0","35","35","35","NA","35","35","0","35","NA","35","35","0","35","NA","35","NA","35","0","0","35","35","0","35","35","36","z","11/28/18 16:25:59","The main experiment item","yes","FIN__AB__M21__7%3A10%3A17.osexp","C:\Users\ERP Testing Room\Desktop\Joanna\morph21","no","mono","no","18","no","white","no","yes","1080","legacy","35","35","C:/Users/ERP Testing Room/Desktop/Joanna/morph21/subject-154.csv","xpyriment","Kafkaesque Koffka","3.2.5","0","z","NA","NA","NA","NA","space","z","605","NA","NA","NA","NA","163247","605","2","legacy","1024","2","48000","-16","AB_m21","154","even","FILL_NW","HOITS","1932","296715","293523","295206","165189","NA","NA","NA","NA","295197","294020","NA","293023","NA","293017","295197","1942","296915","NA","NA","294207","1932","1932","294598","293017","1932","294206","296915","morph21_Oliver/Morris","27","27619","36","yes","1280","30"
"300","75.6756756757","75.6756756757","761.081081081","761.081081081","black","no","xpyriment","legacy","legacy","0","207","NA","uniform","63966","1000","0.0156333051934","1","undefined","1","0","36","36","36","0","36","36","36","NA","36","36","0","36","NA","36","36","0","36","NA","36","NA","36","0","0","36","36","0","36","36","37","/","11/28/18 16:25:59","The main experiment item","yes","FIN__AB__M21__7%3A10%3A17.osexp","C:\Users\ERP Testing Room\Desktop\Joanna\morph21","no","mono","no","18","no","white","no","yes","1080","legacy","36","36","C:/Users/ERP Testing Room/Desktop/Joanna/morph21/subject-154.csv","xpyriment","Kafkaesque Koffka","3.2.5","0","/","NA","NA","NA","NA","space","/","541","NA","NA","NA","NA","163247","541","2","legacy","1024","2","48000","-16","AB_m21","154","even","FILL_W","BAKE","1932","299807","298098","295206","165189","NA","NA","NA","NA","299797","298595","NA","297598","NA","297586","299797","1942","300107","NA","NA","298807","1932","1932","299198","297586","1932","298806","300107","morph21_Oliver/Morris","28","28160","37","yes","1280","29"
"200","76.3157894737","76.3157894737","755.263157895","755.263157895","black","no","xpyriment","legacy","legacy","0","207","NA","uniform","68825","1000","0.0145296040683","1","undefined","1","0","37","37","37","0","37","37","37","NA","37","37","0","37","NA","37","37","0","37","NA","37","NA","37","0","0","37","37","0","37","37","38","/","11/28/18 16:25:59","The main experiment item","yes","FIN__AB__M21__7%3A10%3A17.osexp","C:\Users\ERP Testing Room\Desktop\Joanna\morph21","no","mono","no","18","no","white","no","yes","1080","legacy","37","37","C:/Users/ERP Testing Room/Desktop/Joanna/morph21/subject-154.csv","xpyriment","Kafkaesque Koffka","3.2.5","0","/","NA","NA","NA","NA","space","/","540","NA","NA","NA","NA","163247","540","2","legacy","1024","2","48000","-16","AB_m21","154","even","FILL_W","TEST","1932","303048","301382","295206","165189","NA","NA","NA","NA","303038","301879","NA","300882","NA","300875","303038","1942","303249","NA","NA","302048","1932","1932","302440","300875","1932","302048","303249","morph21_Oliver/Morris","29","28700","38","yes","1280","47"
"400","76.9230769231","76.9230769231","748.794871795","748.794871795","black","no","xpyriment","legacy","legacy","0","207","NA","uniform","69082","1000","0.0144755507947","1","undefined","1","0","38","38","38","0","38","38","38","NA","38","38","0","38","NA","38","38","0","38","NA","38","NA","38","0","0","38","38","0","38","38","39","/","11/28/18 16:25:59","The main experiment item","yes","FIN__AB__M21__7%3A10%3A17.osexp","C:\Users\ERP Testing Room\Desktop\Joanna\morph21","no","mono","no","18","no","white","no","yes","1080","legacy","38","38","C:/Users/ERP Testing Room/Desktop/Joanna/morph21/subject-154.csv","xpyriment","Kafkaesque Koffka","3.2.5","0","/","NA","NA","NA","NA","space","/","503","NA","NA","NA","NA","163247","503","2","legacy","1024","2","48000","-16","AB_m21","154","even","FILL_W","CRUNCH","1932","307666","304474","306158","165189","NA","NA","NA","NA","306150","304972","NA","303973","NA","303962","306150","1942","308066","NA","NA","305158","1932","1932","305549","303962","1932","305158","308066","morph21_Oliver/Morris","30","29203","39","yes","1280","20"
"200","77.5","77.5","749.1","749.1","black","no","xpyriment","legacy","legacy","0","208","NA","uniform","57776","1000","0.0173082248685","1","undefined","1","0","39","39","39","0","39","39","39","NA","39","39","0","39","NA","39","39","0","39","NA","39","NA","39","0","0","39","39","0","39","39","40","z","11/28/18 16:25:59","The main experiment item","yes","FIN__AB__M21__7%3A10%3A17.osexp","C:\Users\ERP Testing Room\Desktop\Joanna\morph21","no","mono","no","18","no","white","no","yes","1080","legacy","39","39","C:/Users/ERP Testing Room/Desktop/Joanna/morph21/subject-154.csv","xpyriment","Kafkaesque Koffka","3.2.5","0","z","NA","NA","NA","NA","space","z","761","NA","NA","NA","NA","163247","761","2","legacy","1024","2","48000","-16","AB_m21","154","even","FILL_NW","PORDS","1932","310891","309183","306158","165189","NA","NA","NA","NA","310881","309680","NA","308683","NA","308680","310881","1942","311091","NA","NA","309891","1932","1932","310283","308680","1932","309891","311091","morph21_Oliver/Morris","31","29964","40","yes","1280","39"
"350","78.0487804878","78.0487804878","747.195121951","747.195121951","black","no","xpyriment","legacy","legacy","0","202","NA","uniform","60100","1000","0.0166389351082","1","undefined","1","0","40","40","40","0","40","40","40","NA","40","40","0","40","NA","40","40","0","40","NA","40","NA","40","0","0","40","40","0","40","40","41","/","11/28/18 16:25:59","The main experiment item","yes","FIN__AB__M21__7%3A10%3A17.osexp","C:\Users\ERP Testing Room\Desktop\Joanna\morph21","no","mono","no","18","no","white","no","yes","1080","legacy","40","40","C:/Users/ERP Testing Room/Desktop/Joanna/morph21/subject-154.csv","xpyriment","Kafkaesque Koffka","3.2.5","0","/","NA","NA","NA","NA","space","/","671","NA","NA","NA","NA","163247","671","2","legacy","1024","2","48000","-16","AB_m21","154","even","CW_L","BOMBER","1932","313917","312233","306158","165189","NA","NA","NA","NA","313909","312730","NA","311733","NA","311724","313909","1942","314267","NA","NA","312917","1932","1932","313308","311723","1932","312916","314267","morph21_Oliver/Morris","32","30635","41","yes","1280","7"
"250","76.1904761905","76.1904761905","747.047619048","747.047619048","black","no","xpyriment","legacy","legacy","0","203","NA","uniform","56280","1000","0.0177683013504","0","undefined","0","0","41","41","41","0","41","41","41","NA","41","41","0","41","NA","41","41","0","41","NA","41","NA","41","0","0","41","41","0","41","41","42","z","11/28/18 16:25:59","The main experiment item","yes","FIN__AB__M21__7%3A10%3A17.osexp","C:\Users\ERP Testing Room\Desktop\Joanna\morph21","no","mono","no","18","no","white","no","yes","1080","legacy","41","41","C:/Users/ERP Testing Room/Desktop/Joanna/morph21/subject-154.csv","xpyriment","Kafkaesque Koffka","3.2.5","0","/","NA","NA","NA","NA","space","/","741","NA","NA","NA","NA","163247","741","2","legacy","1024","2","48000","-16","AB_m21","154","even","NW_S_COMP","BRANCHER","1932","318675","315492","317167","165189","NA","NA","NA","NA","313909","315989","NA","314992","NA","314980","317164","1942","318925","NA","NA","316175","1932","1932","316567","314980","1932","316175","318925","morph21_Oliver/Morris","32","31376","42","yes","1280","16"
"200","76.7441860465","76.7441860465","746.162790698","746.162790698","black","no","xpyriment","legacy","legacy","0","205","NA","uniform","62660","1000","0.0159591445898","1","undefined","1","0","42","42","42","0","42","42","42","NA","42","42","0","42","NA","42","42","0","42","NA","42","NA","42","0","0","42","42","0","42","42","43","z","11/28/18 16:25:59","The main experiment item","yes","FIN__AB__M21__7%3A10%3A17.osexp","C:\Users\ERP Testing Room\Desktop\Joanna\morph21","no","mono","no","18","no","white","no","yes","1080","legacy","42","42","C:/Users/ERP Testing Room/Desktop/Joanna/morph21/subject-154.csv","xpyriment","Kafkaesque Koffka","3.2.5","0","z","NA","NA","NA","NA","space","z","709","NA","NA","NA","NA","163247","709","2","legacy","1024","2","48000","-16","AB_m21","154","even","NW_S_SIMP","GUMFIL","1932","321776","320125","317167","165189","NA","NA","NA","NA","321773","320622","NA","319625","NA","319616","321773","1942","321976","NA","NA","320783","1932","1932","321175","319616","1932","320783","321976","morph21_Oliver/Morris","33","32085","43","yes","1280","2"
"300","77.2727272727","77.2727272727","748.181818182","748.181818182","black","no","xpyriment","legacy","legacy","0","205","NA","uniform","58315","1000","0.0171482465918","1","undefined","1","0","43","43","43","0","43","43","43","NA","43","43","0","43","NA","43","43","0","43","NA","43","NA","43","0","0","43","43","0","43","43","44","z","11/28/18 16:25:59","The main experiment item","yes","FIN__AB__M21__7%3A10%3A17.osexp","C:\Users\ERP Testing Room\Desktop\Joanna\morph21","no","mono","no","18","no","white","no","yes","1080","legacy","43","43","C:/Users/ERP Testing Room/Desktop/Joanna/morph21/subject-154.csv","xpyriment","Kafkaesque Koffka","3.2.5","0","z","NA","NA","NA","NA","space","z","835","NA","NA","NA","NA","163247","835","2","legacy","1024","2","48000","-16","AB_m21","154","even","NW_S_SIMP","BOLTOES","1932","324826","323160","317167","165189","NA","NA","NA","NA","324817","323657","NA","322660","NA","322652","324817","1942","325126","NA","NA","323826","1932","1932","324218","322652","1932","323826","325126","morph21_Oliver/Morris","34","32920","44","yes","1280","13"
"200","77.7777777778","77.7777777778","750.355555556","750.355555556","black","no","xpyriment","legacy","legacy","0","208","NA","uniform","53618","1000","0.018650453206","1","undefined","1","0","44","44","44","0","44","44","44","NA","44","44","0","44","NA","44","44","0","44","NA","44","NA","44","0","0","44","44","0","44","44","45","z","11/28/18 16:25:59","The main experiment item","yes","FIN__AB__M21__7%3A10%3A17.osexp","C:\Users\ERP Testing Room\Desktop\Joanna\morph21","no","mono","no","18","no","white","no","yes","1080","legacy","44","44","C:/Users/ERP Testing Room/Desktop/Joanna/morph21/subject-154.csv","xpyriment","Kafkaesque Koffka","3.2.5","0","z","NA","NA","NA","NA","space","z","846","NA","NA","NA","NA","163247","846","2","legacy","1024","2","48000","-16","AB_m21","154","even","FILL_NW","SMADE","1932","329418","326260","327910","165189","NA","NA","NA","NA","327900","326757","NA","325760","NA","325751","327900","1942","329618","NA","NA","326910","1932","1932","327301","325751","1932","326910","329618","morph21_Oliver/Morris","35","33766","45","yes","1280","42"
"250","78.2608695652","78.2608695652","751.652173913","751.652173913","black","no","xpyriment","legacy","legacy","0","208","NA","uniform","57208","1000","0.0174800727171","1","undefined","1","0","45","45","45","0","45","45","45","NA","45","45","0","45","NA","45","45","0","45","NA","45","NA","45","0","0","45","45","0","45","45","46","z","11/28/18 16:25:59","The main experiment item","yes","FIN__AB__M21__7%3A10%3A17.osexp","C:\Users\ERP Testing Room\Desktop\Joanna\morph21","no","mono","no","18","no","white","no","yes","1080","legacy","45","45","C:/Users/ERP Testing Room/Desktop/Joanna/morph21/subject-154.csv","xpyriment","Kafkaesque Koffka","3.2.5","0","z","NA","NA","NA","NA","space","z","810","NA","NA","NA","NA","163247","810","2","legacy","1024","2","48000","-16","AB_m21","154","even","FILL_NW","POLT","1932","332410","330735","327910","165189","NA","NA","NA","NA","332404","331232","NA","330235","NA","330230","332404","1942","332660","NA","NA","331410","1932","1932","331802","330230","1932","331410","332660","morph21_Oliver/Morris","36","34576","46","yes","1280","38"
"300","78.7234042553","78.7234042553","748.191489362","748.191489362","black","no","xpyriment","legacy","legacy","0","204","NA","uniform","65297","1000","0.0153146392637","1","undefined","1","0","46","46","46","0","46","46","46","NA","46","46","0","46","NA","46","46","0","46","NA","46","NA","46","0","0","46","46","0","46","46","47","z","11/28/18 16:25:59","The main experiment item","yes","FIN__AB__M21__7%3A10%3A17.osexp","C:\Users\ERP Testing Room\Desktop\Joanna\morph21","no","mono","no","18","no","white","no","yes","1080","legacy","46","46","C:/Users/ERP Testing Room/Desktop/Joanna/morph21/subject-154.csv","xpyriment","Kafkaesque Koffka","3.2.5","0","z","NA","NA","NA","NA","space","z","589","NA","NA","NA","NA","163247","589","2","legacy","1024","2","48000","-16","AB_m21","154","even","NW_L_COMP","BINDIC","1932","335543","333835","327910","165189","NA","NA","NA","NA","335536","334332","NA","333335","NA","333328","335536","1942","335843","NA","NA","334543","1932","1932","334935","333328","1932","334543","335843","morph21_Oliver/Morris","37","35165","47","yes","1280","22"
"300","79.1666666667","79.1666666667","745.6875","745.6875","black","no","xpyriment","legacy","legacy","0","202","NA","uniform","62588","1000","0.0159775036748","1","undefined","1","0","47","47","47","0","47","47","47","NA","47","47","0","47","NA","47","47","0","47","NA","47","NA","47","0","0","47","47","0","47","47","48","/","11/28/18 16:25:59","The main experiment item","yes","FIN__AB__M21__7%3A10%3A17.osexp","C:\Users\ERP Testing Room\Desktop\Joanna\morph21","no","mono","no","18","no","white","no","yes","1080","legacy","47","47","C:/Users/ERP Testing Room/Desktop/Joanna/morph21/subject-154.csv","xpyriment","Kafkaesque Koffka","3.2.5","0","/","NA","NA","NA","NA","space","/","628","NA","NA","NA","NA","163247","628","2","legacy","1024","2","48000","-16","AB_m21","154","even","CW_L","HEATER","1932","340270","337043","338760","165189","NA","NA","NA","NA","338753","337541","NA","336544","NA","336533","338753","1942","340570","NA","NA","337760","1932","1932","338152","336533","1932","337760","340570","morph21_Oliver/Morris","38","35793","48","yes","1280","16"
"200","79.5918367347","79.5918367347","744.816326531","744.816326531","black","no","xpyriment","legacy","legacy","0","205","NA","uniform","59724","1000","0.0167436876298","1","undefined","1","0","48","48","48","0","48","48","48","NA","48","48","0","48","NA","48","48","0","48","NA","48","NA","48","0","0","48","48","0","48","48","49","z","11/28/18 16:25:59","The main experiment item","yes","FIN__AB__M21__7%3A10%3A17.osexp","C:\Users\ERP Testing Room\Desktop\Joanna\morph21","no","mono","no","18","no","white","no","yes","1080","legacy","48","48","C:/Users/ERP Testing Room/Desktop/Joanna/morph21/subject-154.csv","xpyriment","Kafkaesque Koffka","3.2.5","0","z","NA","NA","NA","NA","space","z","703","NA","NA","NA","NA","163247","703","2","legacy","1024","2","48000","-16","AB_m21","154","even","NW_S_SIMP","OPPOSEMANT","1932","343478","341803","338760","165189","NA","NA","NA","NA","343473","342300","NA","341303","NA","341295","343473","1942","343678","NA","NA","342478","1932","1932","342878","341295","1932","342478","343678","morph21_Oliver/Morris","39","36496","49","yes","1280","8"
"400","80","80","746.48","746.48","black","no","xpyriment","legacy","legacy","0","205","NA","uniform","54992","1000","0.0181844631946","1","undefined","1","0","49","49","49","0","49","49","49","NA","49","49","0","49","NA","49","49","0","49","NA","49","NA","49","0","0","49","49","0","49","49","50","z","11/28/18 16:25:59","The main experiment item","yes","FIN__AB__M21__7%3A10%3A17.osexp","C:\Users\ERP Testing Room\Desktop\Joanna\morph21","no","mono","no","18","no","white","no","yes","1080","legacy","49","49","C:/Users/ERP Testing Room/Desktop/Joanna/morph21/subject-154.csv","xpyriment","Kafkaesque Koffka","3.2.5","0","z","NA","NA","NA","NA","space","z","828","NA","NA","NA","NA","163247","828","2","legacy","1024","2","48000","-16","AB_m21","154","even","NW_S_SIMP","ADVERTISELA","1932","346520","344870","338760","165189","NA","NA","NA","NA","346515","345367","NA","344370","NA","344364","346515","1942","346920","NA","NA","345520","1932","1932","345920","344364","1932","345520","346920","morph21_Oliver/Morris","40","37324","50","yes","1280","25"
"400","80.3921568627","80.3921568627","743.62745098","743.62745098","black","no","xpyriment","legacy","legacy","0","202","NA","uniform","64436","1000","0.0155192749395","1","undefined","1","0","50","50","50","0","50","50","50","NA","50","50","0","50","NA","50","50","0","50","NA","50","NA","50","0","0","50","50","0","50","50","51","/","11/28/18 16:25:59","The main experiment item","yes","FIN__AB__M21__7%3A10%3A17.osexp","C:\Users\ERP Testing Room\Desktop\Joanna\morph21","no","mono","no","18","no","white","no","yes","1080","legacy","50","50","C:/Users/ERP Testing Room/Desktop/Joanna/morph21/subject-154.csv","xpyriment","Kafkaesque Koffka","3.2.5","0","/","NA","NA","NA","NA","space","/","601","NA","NA","NA","NA","163247","601","2","legacy","1024","2","48000","-16","AB_m21","154","even","CW_L","LOCKER","1932","351295","348078","349787","165189","NA","NA","NA","NA","349781","348575","NA","347578","NA","347574","349781","1942","351695","NA","NA","348787","1932","1932","349178","347574","1932","348787","351695","morph21_Oliver/Morris","41","37925","51","yes","1280","8"
"300","80.7692307692","80.7692307692","744.019230769","744.019230769","black","no","xpyriment","legacy","legacy","0","203","NA","uniform","62108","1000","0.0161009853803","1","undefined","1","0","51","51","51","0","51","51","51","NA","51","51","0","51","NA","51","51","0","51","NA","51","NA","51","0","0","51","51","0","51","51","52","z","11/28/18 16:25:59","The main experiment item","yes","FIN__AB__M21__7%3A10%3A17.osexp","C:\Users\ERP Testing Room\Desktop\Joanna\morph21","no","mono","no","18","no","white","no","yes","1080","legacy","51","51","C:/Users/ERP Testing Room/Desktop/Joanna/morph21/subject-154.csv","xpyriment","Kafkaesque Koffka","3.2.5","0","z","NA","NA","NA","NA","space","z","764","NA","NA","NA","NA","163247","764","2","legacy","1024","2","48000","-16","AB_m21","154","even","NW_S_COMP","FIGER","1932","354512","352804","349787","165189","NA","NA","NA","NA","354506","353301","NA","352303","NA","352294","354506","1942","354812","NA","NA","353512","1932","1932","353904","352294","1932","353512","354812","morph21_Oliver/Morris","42","38689","52","yes","1280","4"
"400","81.1320754717","81.1320754717","742.924528302","742.924528302","black","no","xpyriment","legacy","legacy","0","207","NA","uniform","61004","1000","0.0163923677136","1","undefined","1","0","52","52","52","0","52","52","52","NA","52","52","0","52","NA","52","52","0","52","NA","52","NA","52","0","0","52","52","0","52","52","53","/","11/28/18 16:25:59","The main experiment item","yes","FIN__AB__M21__7%3A10%3A17.osexp","C:\Users\ERP Testing Room\Desktop\Joanna\morph21","no","mono","no","18","no","white","no","yes","1080","legacy","52","52","C:/Users/ERP Testing Room/Desktop/Joanna/morph21/subject-154.csv","xpyriment","Kafkaesque Koffka","3.2.5","0","/","NA","NA","NA","NA","space","/","686","NA","NA","NA","NA","163247","686","2","legacy","1024","2","48000","-16","AB_m21","154","even","FILL_W","QUIT","1932","357671","355970","349787","165189","NA","NA","NA","NA","357665","356467","NA","355470","NA","355466","357665","1942","358071","NA","NA","356671","1932","1932","357063","355466","1932","356671","358071","morph21_Oliver/Morris","43","39375","53","yes","1280","21"
"350","81.4814814815","81.4814814815","739.592592593","739.592592593","black","no","xpyriment","legacy","legacy","0","201","NA","uniform","61138","1000","0.0163564395302","1","undefined","1","0","53","53","53","0","53","53","53","NA","53","53","0","53","NA","53","53","0","53","NA","53","NA","53","0","0","53","53","0","53","53","54","/","11/28/18 16:25:59","The main experiment item","yes","FIN__AB__M21__7%3A10%3A17.osexp","C:\Users\ERP Testing Room\Desktop\Joanna\morph21","no","mono","no","18","no","white","no","yes","1080","legacy","53","53","C:/Users/ERP Testing Room/Desktop/Joanna/morph21/subject-154.csv","xpyriment","Kafkaesque Koffka","3.2.5","0","/","NA","NA","NA","NA","space","/","563","NA","NA","NA","NA","163247","563","2","legacy","1024","2","48000","-16","AB_m21","154","even","CW_S","BEARDED","1932","362455","359255","360946","165189","NA","NA","NA","NA","360936","359752","NA","358747","NA","358738","360936","1942","362805","NA","NA","359946","1932","1932","360338","358738","1932","359946","362805","morph21_Oliver/Morris","44","39938","54","yes","1280","8"
"250","81.8181818182","81.8181818182","737","737","black","no","xpyriment","legacy","legacy","0","208","NA","uniform","66112","1000","0.0151258470474","1","undefined","1","0","54","54","54","0","54","54","54","NA","54","54","0","54","NA","54","54","0","54","NA","54","NA","54","0","0","54","54","0","54","54","55","z","11/28/18 16:25:59","The main experiment item","yes","FIN__AB__M21__7%3A10%3A17.osexp","C:\Users\ERP Testing Room\Desktop\Joanna\morph21","no","mono","no","18","no","white","no","yes","1080","legacy","54","54","C:/Users/ERP Testing Room/Desktop/Joanna/morph21/subject-154.csv","xpyriment","Kafkaesque Koffka","3.2.5","0","z","NA","NA","NA","NA","space","z","597","NA","NA","NA","NA","163247","597","2","legacy","1024","2","48000","-16","AB_m21","154","even","FILL_NW","PHEEKS","1932","365647","363963","360946","165189","NA","NA","NA","NA","365643","364460","NA","363463","NA","363452","365643","1942","365897","NA","NA","364655","1932","1932","365047","363452","1932","364655","365897","morph21_Oliver/Morris","45","40535","55","yes","1280","35"
"350","82.1428571429","82.1428571429","738.785714286","738.785714286","black","no","xpyriment","legacy","legacy","0","208","NA","uniform","58557","1000","0.0170773775979","1","undefined","1","0","55","55","55","0","55","55","55","NA","55","55","0","55","NA","55","55","0","55","NA","55","NA","55","0","0","55","55","0","55","55","56","z","11/28/18 16:25:59","The main experiment item","yes","FIN__AB__M21__7%3A10%3A17.osexp","C:\Users\ERP Testing Room\Desktop\Joanna\morph21","no","mono","no","18","no","white","no","yes","1080","legacy","55","55","C:/Users/ERP Testing Room/Desktop/Joanna/morph21/subject-154.csv","xpyriment","Kafkaesque Koffka","3.2.5","0","z","NA","NA","NA","NA","space","z","837","NA","NA","NA","NA","163247","837","2","legacy","1024","2","48000","-16","AB_m21","154","even","FILL_NW","JADS","1932","368663","366997","360946","165189","NA","NA","NA","NA","368658","367494","NA","366497","NA","366487","368658","1942","369014","NA","NA","367663","1932","1932","368055","366487","1932","367663","369014","morph21_Oliver/Morris","46","41372","56","yes","1280","31"
"350","82.4561403509","82.4561403509","735.684210526","735.684210526","black","no","xpyriment","legacy","legacy","0","205","NA","uniform","64494","1000","0.0155053183242","1","undefined","1","0","56","56","56","0","56","56","56","NA","56","56","0","56","NA","56","56","0","56","NA","56","NA","56","0","0","56","56","0","56","56","57","z","11/28/18 16:25:59","The main experiment item","yes","FIN__AB__M21__7%3A10%3A17.osexp","C:\Users\ERP Testing Room\Desktop\Joanna\morph21","no","mono","no","18","no","white","no","yes","1080","legacy","56","56","C:/Users/ERP Testing Room/Desktop/Joanna/morph21/subject-154.csv","xpyriment","Kafkaesque Koffka","3.2.5","0","z","NA","NA","NA","NA","space","z","562","NA","NA","NA","NA","163247","562","2","legacy","1024","2","48000","-16","AB_m21","154","even","NW_S_SIMP","BASKODY","1932","373430","370222","371922","165189","NA","NA","NA","NA","371919","370719","NA","369722","NA","369716","371919","1942","373781","NA","NA","370930","1932","1932","371322","369716","1932","370930","373781","morph21_Oliver/Morris","47","41934","57","yes","1280","10"
"400","82.7586206897","82.7586206897","734.017241379","734.017241379","black","no","xpyriment","legacy","legacy","0","206","NA","uniform","58382","1000","0.0171285670241","1","undefined","1","0","57","57","57","0","57","57","57","NA","57","57","0","57","NA","57","57","0","57","NA","57","NA","57","0","0","57","57","0","57","57","58","z","11/28/18 16:25:59","The main experiment item","yes","FIN__AB__M21__7%3A10%3A17.osexp","C:\Users\ERP Testing Room\Desktop\Joanna\morph21","no","mono","no","18","no","white","no","yes","1080","legacy","57","57","C:/Users/ERP Testing Room/Desktop/Joanna/morph21/subject-154.csv","xpyriment","Kafkaesque Koffka","3.2.5","0","z","NA","NA","NA","NA","space","z","639","NA","NA","NA","NA","163247","639","2","legacy","1024","2","48000","-16","AB_m21","154","even","NW_L_SIMP","POORIDY","1932","376606","374940","371922","165189","NA","NA","NA","NA","376602","375437","NA","374440","NA","374434","376602","1942","377007","NA","NA","375606","1932","1932","376006","374434","1932","375606","377007","morph21_Oliver/Morris","48","42573","58","yes","1280","13"
"400","83.0508474576","83.0508474576","735.305084746","735.305084746","black","no","xpyriment","legacy","legacy","0","208","NA","uniform","57853","1000","0.0172851883221","1","undefined","1","0","58","58","58","0","58","58","58","NA","58","58","0","58","NA","58","58","0","58","NA","58","NA","58","0","0","58","58","0","58","58","59","z","11/28/18 16:25:59","The main experiment item","yes","FIN__AB__M21__7%3A10%3A17.osexp","C:\Users\ERP Testing Room\Desktop\Joanna\morph21","no","mono","no","18","no","white","no","yes","1080","legacy","58","58","C:/Users/ERP Testing Room/Desktop/Joanna/morph21/subject-154.csv","xpyriment","Kafkaesque Koffka","3.2.5","0","z","NA","NA","NA","NA","space","z","810","NA","NA","NA","NA","163247","810","2","legacy","1024","2","48000","-16","AB_m21","154","even","FILL_NW","VELT","1932","379898","378165","371922","165189","NA","NA","NA","NA","379888","378662","NA","377665","NA","377656","379888","1942","380298","NA","NA","378898","1932","1932","379290","377656","1932","378898","380298","morph21_Oliver/Morris","49","43383","59","yes","1280","46"
"250","83.3333333333","83.3333333333","734","734","black","no","xpyriment","legacy","legacy","0","203","NA","uniform","59105","1000","0.0169190423822","1","undefined","1","0","59","59","59","0","59","59","59","NA","59","59","0","59","NA","59","59","0","59","NA","59","NA","59","0","0","59","59","0","59","59","60","z","11/28/18 16:25:59","The main experiment item","yes","FIN__AB__M21__7%3A10%3A17.osexp","C:\Users\ERP Testing Room\Desktop\Joanna\morph21","no","mono","no","18","no","white","no","yes","1080","legacy","59","59","C:/Users/ERP Testing Room/Desktop/Joanna/morph21/subject-154.csv","xpyriment","Kafkaesque Koffka","3.2.5","0","z","NA","NA","NA","NA","space","z","657","NA","NA","NA","NA","163247","657","2","legacy","1024","2","48000","-16","AB_m21","154","even","NW_S_COMP","LIDARY","1932","384615","381448","383107","165189","NA","NA","NA","NA","383104","381946","NA","380948","NA","380941","383104","1942","384865","NA","NA","382115","1932","1932","382507","380941","1932","382115","384865","morph21_Oliver/Morris","50","44040","60","yes","1280","3"
"200","81.9672131148","81.9672131148","730.278688525","730.278688525","black","no","xpyriment","legacy","legacy","0","202","NA","uniform","68597","1000","0.0145778969926","0","undefined","0","0","60","60","60","0","60","60","60","NA","60","60","0","60","NA","60","60","0","60","NA","60","NA","60","0","0","60","60","0","60","60","61","/","11/28/18 16:25:59","The main experiment item","yes","FIN__AB__M21__7%3A10%3A17.osexp","C:\Users\ERP Testing Room\Desktop\Joanna\morph21","no","mono","no","18","no","white","no","yes","1080","legacy","60","60","C:/Users/ERP Testing Room/Desktop/Joanna/morph21/subject-154.csv","xpyriment","Kafkaesque Koffka","3.2.5","0","z","NA","NA","NA","NA","space","z","507","NA","NA","NA","NA","163247","507","2","legacy","1024","2","48000","-16","AB_m21","154","even","CW_L","BOOTLESS","1932","387657","385999","383107","165189","NA","NA","NA","NA","383104","386496","NA","385499","NA","385491","387651","1942","387857","NA","NA","386657","1932","1932","387049","385491","1932","386657","387857","morph21_Oliver/Morris","50","44547","61","yes","1280","32"
"400","82.2580645161","82.2580645161","728.338709677","728.338709677","black","no","xpyriment","legacy","legacy","0","207","NA","uniform","63832","1000","0.0156661235744","1","undefined","1","0","61","61","61","0","61","61","61","NA","61","61","0","61","NA","61","61","0","61","NA","61","NA","61","0","0","61","61","0","61","61","62","/","11/28/18 16:25:59","The main experiment item","yes","FIN__AB__M21__7%3A10%3A17.osexp","C:\Users\ERP Testing Room\Desktop\Joanna\morph21","no","mono","no","18","no","white","no","yes","1080","legacy","61","61","C:/Users/ERP Testing Room/Desktop/Joanna/morph21/subject-154.csv","xpyriment","Kafkaesque Koffka","3.2.5","0","/","NA","NA","NA","NA","space","/","610","NA","NA","NA","NA","163247","610","2","legacy","1024","2","48000","-16","AB_m21","154","even","FILL_W","CHIP","1932","390682","388990","383107","165189","NA","NA","NA","NA","390674","389488","NA","388490","NA","388479","390674","1942","391082","NA","NA","389682","1932","1932","390074","388479","1932","389682","391082","morph21_Oliver/Morris","51","45157","62","yes","1280","11"
"400","82.5396825397","82.5396825397","726.952380952","726.952380952","black","no","xpyriment","legacy","legacy","0","202","NA","uniform","61327","1000","0.0163060316011","1","undefined","1","0","62","62","62","0","62","62","62","NA","62","62","0","62","NA","62","62","0","62","NA","62","NA","62","0","0","62","62","0","62","62","63","/","11/28/18 16:25:59","The main experiment item","yes","FIN__AB__M21__7%3A10%3A17.osexp","C:\Users\ERP Testing Room\Desktop\Joanna\morph21","no","mono","no","18","no","white","no","yes","1080","legacy","62","62","C:/Users/ERP Testing Room/Desktop/Joanna/morph21/subject-154.csv","xpyriment","Kafkaesque Koffka","3.2.5","0","/","NA","NA","NA","NA","space","/","641","NA","NA","NA","NA","163247","641","2","legacy","1024","2","48000","-16","AB_m21","154","even","CW_L","BLINDNESS","1932","395408","392208","393900","165189","NA","NA","NA","NA","393890","392705","NA","391708","NA","391703","393890","1942","395809","NA","NA","392900","1932","1932","393292","391703","1932","392900","395809","morph21_Oliver/Morris","52","45798","63","yes","1280","40"
"200","82.8125","82.8125","724.53125","724.53125","black","no","xpyriment","legacy","legacy","0","202","NA","uniform","61324","1000","0.0163068293001","1","undefined","1","0","63","63","63","0","63","63","63","NA","63","63","0","63","NA","63","63","0","63","NA","63","NA","63","0","0","63","63","0","63","63","64","/","11/28/18 16:25:59","The main experiment item","yes","FIN__AB__M21__7%3A10%3A17.osexp","C:\Users\ERP Testing Room\Desktop\Joanna\morph21","no","mono","no","18","no","white","no","yes","1080","legacy","63","63","C:/Users/ERP Testing Room/Desktop/Joanna/morph21/subject-154.csv","xpyriment","Kafkaesque Koffka","3.2.5","0","/","NA","NA","NA","NA","space","/","572","NA","NA","NA","NA","163247","572","2","legacy","1024","2","48000","-16","AB_m21","154","even","CW_L","SHAMEFUL","1932","398633","396967","393900","165189","NA","NA","NA","NA","398628","397464","NA","396467","NA","396457","398628","1942","398833","NA","NA","397633","1932","1932","398025","396457","1932","397633","398833","morph21_Oliver/Morris","53","46370","64","yes","1280","19"
"350","83.0769230769","83.0769230769","721.307692308","721.307692308","black","no","xpyriment","legacy","legacy","0","202","NA","uniform","72041","1000","0.0138809844394","1","undefined","1","0","64","64","64","0","64","64","64","NA","64","64","0","64","NA","64","64","0","64","NA","64","NA","64","0","0","64","64","0","64","64","65","/","11/28/18 16:25:59","The main experiment item","yes","FIN__AB__M21__7%3A10%3A17.osexp","C:\Users\ERP Testing Room\Desktop\Joanna\morph21","no","mono","no","18","no","white","no","yes","1080","legacy","64","64","C:/Users/ERP Testing Room/Desktop/Joanna/morph21/subject-154.csv","xpyriment","Kafkaesque Koffka","3.2.5","0","/","NA","NA","NA","NA","space","/","515","NA","NA","NA","NA","163247","515","2","legacy","1024","2","48000","-16","AB_m21","154","even","CW_L","JUMPING","1932","401625","399959","393900","165189","NA","NA","NA","NA","401621","400456","NA","399458","NA","399454","401621","1942","401975","NA","NA","400625","1932","1932","401025","399454","1932","400625","401975","morph21_Oliver/Morris","54","46885","65","yes","1280","30"
"350","83.3333333333","83.3333333333","718.681818182","718.681818182","black","no","xpyriment","legacy","legacy","0","202","NA","uniform","65079","1000","0.0153659398577","1","undefined","1","0","65","65","65","0","65","65","65","NA","65","65","0","65","NA","65","65","0","65","NA","65","NA","65","0","0","65","65","0","65","65","66","/","11/28/18 16:25:59","The main experiment item","yes","FIN__AB__M21__7%3A10%3A17.osexp","C:\Users\ERP Testing Room\Desktop\Joanna\morph21","no","mono","no","18","no","white","no","yes","1080","legacy","65","65","C:/Users/ERP Testing Room/Desktop/Joanna/morph21/subject-154.csv","xpyriment","Kafkaesque Koffka","3.2.5","0","/","NA","NA","NA","NA","space","/","548","NA","NA","NA","NA","163247","548","2","legacy","1024","2","48000","-16","AB_m21","154","even","CW_L","BARKER","1932","406309","403150","404800","165189","NA","NA","NA","NA","404797","403648","NA","402650","NA","402645","404797","1942","406659","NA","NA","403800","1932","1932","404200","402645","1932","403800","406659","morph21_Oliver/Morris","55","47433","66","yes","1280","2"
"350","83.5820895522","83.5820895522","717.835820896","717.835820896","black","no","xpyriment","legacy","legacy","0","202","NA","uniform","63798","1000","0.015674472554","1","undefined","1","0","66","66","66","0","66","66","66","NA","66","66","0","66","NA","66","66","0","66","NA","66","NA","66","0","0","66","66","0","66","66","67","/","11/28/18 16:25:59","The main experiment item","yes","FIN__AB__M21__7%3A10%3A17.osexp","C:\Users\ERP Testing Room\Desktop\Joanna\morph21","no","mono","no","18","no","white","no","yes","1080","legacy","66","66","C:/Users/ERP Testing Room/Desktop/Joanna/morph21/subject-154.csv","xpyriment","Kafkaesque Koffka","3.2.5","0","/","NA","NA","NA","NA","space","/","662","NA","NA","NA","NA","163247","662","2","legacy","1024","2","48000","-16","AB_m21","154","even","CW_L","PARKING","1932","409568","407876","404800","165189","NA","NA","NA","NA","409558","408373","NA","407376","NA","407364","409558","1942","409918","NA","NA","408567","1932","1932","408959","407364","1932","408567","409918","morph21_Oliver/Morris","56","48095","67","yes","1280","25"
"400","83.8235294118","83.8235294118","718.75","718.75","black","no","xpyriment","legacy","legacy","0","208","NA","uniform","58343","1000","0.0171400167972","1","undefined","1","0","67","67","67","0","67","67","67","NA","67","67","0","67","NA","67","67","0","67","NA","67","NA","67","0","0","67","67","0","67","67","68","z","11/28/18 16:25:59","The main experiment item","yes","FIN__AB__M21__7%3A10%3A17.osexp","C:\Users\ERP Testing Room\Desktop\Joanna\morph21","no","mono","no","18","no","white","no","yes","1080","legacy","67","67","C:/Users/ERP Testing Room/Desktop/Joanna/morph21/subject-154.csv","xpyriment","Kafkaesque Koffka","3.2.5","0","z","NA","NA","NA","NA","space","z","780","NA","NA","NA","NA","163247","780","2","legacy","1024","2","48000","-16","AB_m21","154","even","FILL_NW","CORG","1932","412777","411060","404800","165189","NA","NA","NA","NA","412770","411557","NA","410560","NA","410549","412770","1942","413177","NA","NA","411777","1932","1932","412168","410549","1932","411777","413177","morph21_Oliver/Morris","57","48875","68","yes","1280","7"
"400","84.0579710145","84.0579710145","717.376811594","717.376811594","black","no","xpyriment","legacy","legacy","0","202","NA","uniform","67551","1000","0.01480362985","1","undefined","1","0","68","68","68","0","68","68","68","NA","68","68","0","68","NA","68","68","0","68","NA","68","NA","68","0","0","68","68","0","68","68","69","/","11/28/18 16:25:59","The main experiment item","yes","FIN__AB__M21__7%3A10%3A17.osexp","C:\Users\ERP Testing Room\Desktop\Joanna\morph21","no","mono","no","18","no","white","no","yes","1080","legacy","68","68","C:/Users/ERP Testing Room/Desktop/Joanna/morph21/subject-154.csv","xpyriment","Kafkaesque Koffka","3.2.5","0","/","NA","NA","NA","NA","space","/","624","NA","NA","NA","NA","163247","624","2","legacy","1024","2","48000","-16","AB_m21","154","even","CW_L","SPELLER","1932","417569","414377","416060","165189","NA","NA","NA","NA","416055","414874","NA","413877","NA","413872","416055","1942","417969","NA","NA","415060","1932","1932","415460","413872","1932","415060","417969","morph21_Oliver/Morris","58","49499","69","yes","1280","3"
"300","84.2857142857","84.2857142857","719","719","black","no","xpyriment","legacy","legacy","0","204","NA","uniform","54460","1000","0.0183621006243","1","undefined","1","0","69","69","69","0","69","69","69","NA","69","69","0","69","NA","69","69","0","69","NA","69","NA","69","0","0","69","69","0","69","69","70","z","11/28/18 16:25:59","The main experiment item","yes","FIN__AB__M21__7%3A10%3A17.osexp","C:\Users\ERP Testing Room\Desktop\Joanna\morph21","no","mono","no","18","no","white","no","yes","1080","legacy","69","69","C:/Users/ERP Testing Room/Desktop/Joanna/morph21/subject-154.csv","xpyriment","Kafkaesque Koffka","3.2.5","0","z","NA","NA","NA","NA","space","z","831","NA","NA","NA","NA","163247","831","2","legacy","1024","2","48000","-16","AB_m21","154","even","NW_L_COMP","NORTHIZE","1932","420877","419185","416060","165189","NA","NA","NA","NA","420867","419682","NA","418685","NA","418680","420867","1942","421177","NA","NA","419877","1932","1932","420269","418680","1932","419877","421177","morph21_Oliver/Morris","59","50330","70","yes","1280","20"
"300","84.5070422535","84.5070422535","717.732394366","717.732394366","black","no","xpyriment","legacy","legacy","0","202","NA","uniform","60364","1000","0.0165661652641","1","undefined","1","0","70","70","70","0","70","70","70","NA","70","70","0","70","NA","70","70","0","70","NA","70","NA","70","0","0","70","70","0","70","70","71","/","11/28/18 16:25:59","The main experiment item","yes","FIN__AB__M21__7%3A10%3A17.osexp","C:\Users\ERP Testing Room\Desktop\Joanna\morph21","no","mono","no","18","no","white","no","yes","1080","legacy","70","70","C:/Users/ERP Testing Room/Desktop/Joanna/morph21/subject-154.csv","xpyriment","Kafkaesque Koffka","3.2.5","0","/","NA","NA","NA","NA","space","/","629","NA","NA","NA","NA","163247","629","2","legacy","1024","2","48000","-16","AB_m21","154","even","CW_L","COMPOSER","1932","424127","422419","416060","165189","NA","NA","NA","NA","424119","422916","NA","421919","NA","421915","424119","1942","424427","NA","NA","423127","1932","1932","423519","421915","1932","423127","424427","morph21_Oliver/Morris","60","50959","71","yes","1280","6"
"300","84.7222222222","84.7222222222","717.791666667","717.791666667","black","no","xpyriment","legacy","legacy","0","205","NA","uniform","57746","1000","0.0173172167769","1","undefined","1","0","71","71","71","0","71","71","71","NA","71","71","0","71","NA","71","71","0","71","NA","71","NA","71","0","0","71","71","0","71","71","72","z","11/28/18 16:25:59","The main experiment item","yes","FIN__AB__M21__7%3A10%3A17.osexp","C:\Users\ERP Testing Room\Desktop\Joanna\morph21","no","mono","no","18","no","white","no","yes","1080","legacy","71","71","C:/Users/ERP Testing Room/Desktop/Joanna/morph21/subject-154.csv","xpyriment","Kafkaesque Koffka","3.2.5","0","z","NA","NA","NA","NA","space","z","722","NA","NA","NA","NA","163247","722","2","legacy","1024","2","48000","-16","AB_m21","154","even","NW_S_SIMP","YIELDILT","1932","428737","425536","427228","165189","NA","NA","NA","NA","427221","426033","NA","425036","NA","425030","427221","1942","429037","NA","NA","426227","1932","1932","426620","425030","1932","426227","429037","morph21_Oliver/Morris","61","51681","72","yes","1280","20"
"200","84.9315068493","84.9315068493","717.780821918","717.780821918","black","no","xpyriment","legacy","legacy","0","201","NA","uniform","59841","1000","0.016710950686","1","undefined","1","0","72","72","72","0","72","72","72","NA","72","72","0","72","NA","72","72","0","72","NA","72","NA","72","0","0","72","72","0","72","72","73","/","11/28/18 16:25:59","The main experiment item","yes","FIN__AB__M21__7%3A10%3A17.osexp","C:\Users\ERP Testing Room\Desktop\Joanna\morph21","no","mono","no","18","no","white","no","yes","1080","legacy","72","72","C:/Users/ERP Testing Room/Desktop/Joanna/morph21/subject-154.csv","xpyriment","Kafkaesque Koffka","3.2.5","0","/","NA","NA","NA","NA","space","/","717","NA","NA","NA","NA","163247","717","2","legacy","1024","2","48000","-16","AB_m21","154","even","CW_S","AMUSEMENT","1932","431920","430229","427228","165189","NA","NA","NA","NA","431916","430726","NA","429728","NA","429721","431916","1942","432120","NA","NA","430920","1932","1932","431320","429721","1932","430920","432120","morph21_Oliver/Morris","62","52398","73","yes","1280","38"
"200","85.1351351351","85.1351351351","718.081081081","718.081081081","black","no","xpyriment","legacy","legacy","0","208","NA","uniform","52041","1000","0.0192156184547","1","undefined","1","0","73","73","73","0","73","73","73","NA","73","73","0","73","NA","73","73","0","73","NA","73","NA","73","0","0","73","73","0","73","73","74","z","11/28/18 16:25:59","The main experiment item","yes","FIN__AB__M21__7%3A10%3A17.osexp","C:\Users\ERP Testing Room\Desktop\Joanna\morph21","no","mono","no","18","no","white","no","yes","1080","legacy","73","73","C:/Users/ERP Testing Room/Desktop/Joanna/morph21/subject-154.csv","xpyriment","Kafkaesque Koffka","3.2.5","0","z","NA","NA","NA","NA","space","z","740","NA","NA","NA","NA","163247","740","2","legacy","1024","2","48000","-16","AB_m21","154","even","FILL_NW","HESK","1932","434912","433237","427228","165189","NA","NA","NA","NA","434906","433734","NA","432729","NA","432723","434906","1942","435112","NA","NA","433912","1932","1932","434304","432723","1932","433912","435112","morph21_Oliver/Morris","63","53138","74","yes","1280","29"
"200","85.3333333333","85.3333333333","717.68","717.68","black","no","xpyriment","legacy","legacy","0","207","NA","uniform","55198","1000","0.0181165984275","undefined","undefined","1","0","74","74","74","0","74","74","74","NA","74","74","0","74","NA","74","74","0","74","NA","74","NA","74","0","0","74","74","0","74","74","75","/","11/28/18 16:25:59","The main experiment item","yes","FIN__AB__M21__7%3A10%3A17.osexp","C:\Users\ERP Testing Room\Desktop\Joanna\morph21","no","mono","no","18","no","white","no","yes","1080","legacy","74","74","C:/Users/ERP Testing Room/Desktop/Joanna/morph21/subject-154.csv","xpyriment","Kafkaesque Koffka","3.2.5","0","space","space","NA","NA","NA","space","/","16627","16627","NA","NA","NA","163247","688","2","legacy","1024","2","48000","-16","AB_m21","154","even","FILL_W","LEGAL","1932","439521","436320","438012","165189","439729","NA","NA","NA","438008","436818","NA","435820","NA","435813","438008","1942","456357","NA","NA","437020","1932","1932","437412","435813","1932","437020","439721","morph21_Oliver/Morris","64","53826","75","yes","1280","35"
"200","84.2105263158","84.2105263158","721.236842105","721.236842105","black","no","xpyriment","legacy","legacy","0","207","NA","uniform","49196","1000","0.0203268558419","0","undefined","0","0","75","75","75","0","75","75","75","NA","75","75","0","75","NA","75","75","0","75","NA","75","NA","75","0","0","75","75","0","75","75","76","/","11/28/18 16:25:59","The main experiment item","yes","FIN__AB__M21__7%3A10%3A17.osexp","C:\Users\ERP Testing Room\Desktop\Joanna\morph21","no","mono","no","18","no","white","no","yes","1080","legacy","75","75","C:/Users/ERP Testing Room/Desktop/Joanna/morph21/subject-154.csv","xpyriment","Kafkaesque Koffka","3.2.5","0","None","space","NA","NA","NA","space","None","988","16627","NA","NA","NA","163247","988","2","legacy","1024","2","48000","-16","AB_m21","154","even","FILL_W","STALK","1932","459139","457439","438012","165189","439729","NA","NA","NA","438008","457936","NA","456939","NA","456934","459136","1942","459339","NA","NA","458147","1932","1932","458539","456934","1932","458147","459339","morph21_Oliver/Morris","64","54814","76","yes","1280","27"
"200","84.4155844156","84.4155844156","719.220779221","719.220779221","black","no","xpyriment","legacy","legacy","0","207","NA","uniform","69492","1000","0.0143901456283","1","undefined","1","0","76","76","76","0","76","76","76","NA","76","76","0","76","NA","76","76","0","76","NA","76","NA","76","0","0","76","76","0","76","76","77","/","11/28/18 16:25:59","The main experiment item","yes","FIN__AB__M21__7%3A10%3A17.osexp","C:\Users\ERP Testing Room\Desktop\Joanna\morph21","no","mono","no","18","no","white","no","yes","1080","legacy","76","76","C:/Users/ERP Testing Room/Desktop/Joanna/morph21/subject-154.csv","xpyriment","Kafkaesque Koffka","3.2.5","0","/","space","NA","NA","NA","space","/","566","16627","NA","NA","NA","163247","566","2","legacy","1024","2","48000","-16","AB_m21","154","even","FILL_W","SAVE","1932","462248","460547","438012","165189","439729","NA","NA","NA","462240","461045","NA","460047","NA","460036","462240","1942","462449","NA","NA","461247","1932","1932","461640","460036","1932","461247","462449","morph21_Oliver/Morris","65","55380","77","yes","1280","46"
"250","84.6153846154","84.6153846154","716.461538462","716.461538462","black","no","xpyriment","legacy","legacy","0","207","NA","uniform","66672","1000","0.014998800096","1","undefined","1","0","77","77","77","0","77","77","77","NA","77","77","0","77","NA","77","77","0","77","NA","77","NA","77","0","0","77","77","0","77","77","78","/","11/28/18 16:25:59","The main experiment item","yes","FIN__AB__M21__7%3A10%3A17.osexp","C:\Users\ERP Testing Room\Desktop\Joanna\morph21","no","mono","no","18","no","white","no","yes","1080","legacy","77","77","C:/Users/ERP Testing Room/Desktop/Joanna/morph21/subject-154.csv","xpyriment","Kafkaesque Koffka","3.2.5","0","/","space","NA","NA","NA","space","/","504","16627","NA","NA","NA","163247","504","2","legacy","1024","2","48000","-16","AB_m21","154","even","FILL_W","SLIM","1932","466874","463707","465365","165189","439729","NA","NA","NA","465355","464204","NA","463207","NA","463202","465355","1942","467124","NA","NA","464365","1932","1932","464757","463202","1932","464365","467124","morph21_Oliver/Morris","66","55884","78","yes","1280","6"
"200","84.8101265823","84.8101265823","716.291139241","716.291139241","black","no","xpyriment","legacy","legacy","0","203","NA","uniform","63618","1000","0.0157188217171","1","undefined","1","0","78","78","78","0","78","78","78","NA","78","78","0","78","NA","78","78","0","78","NA","78","NA","78","0","0","78","78","0","78","78","79","z","11/28/18 16:25:59","The main experiment item","yes","FIN__AB__M21__7%3A10%3A17.osexp","C:\Users\ERP Testing Room\Desktop\Joanna\morph21","no","mono","no","18","no","white","no","yes","1080","legacy","78","78","C:/Users/ERP Testing Room/Desktop/Joanna/morph21/subject-154.csv","xpyriment","Kafkaesque Koffka","3.2.5","0","z","space","NA","NA","NA","space","z","703","16627","NA","NA","NA","163247","703","2","legacy","1024","2","48000","-16","AB_m21","154","even","NW_S_COMP","MELTANCE","1932","469940","468282","465365","165189","439729","NA","NA","NA","469937","468779","NA","467782","NA","467771","469937","1942","470141","NA","NA","468949","1932","1932","469340","467771","1932","468949","470141","morph21_Oliver/Morris","67","56587","79","yes","1280","1"
"400","85","85","715.6375","715.6375","black","no","xpyriment","legacy","legacy","0","202","NA","uniform","65542","1000","0.0152573922065","1","undefined","1","0","79","79","79","0","79","79","79","NA","79","79","0","79","NA","79","79","0","79","NA","79","NA","79","0","0","79","79","0","79","79","80","/","11/28/18 16:25:59","The main experiment item","yes","FIN__AB__M21__7%3A10%3A17.osexp","C:\Users\ERP Testing Room\Desktop\Joanna\morph21","no","mono","no","18","no","white","no","yes","1080","legacy","79","79","C:/Users/ERP Testing Room/Desktop/Joanna/morph21/subject-154.csv","xpyriment","Kafkaesque Koffka","3.2.5","0","/","space","NA","NA","NA","space","/","664","16627","NA","NA","NA","163247","664","2","legacy","1024","2","48000","-16","AB_m21","154","even","CW_L","COOLING","1932","472924","471241","465365","165189","439729","NA","NA","NA","472920","471738","NA","470741","NA","470735","472920","1942","473324","NA","NA","471932","1932","1932","472324","470735","1932","471932","473324","morph21_Oliver/Morris","68","57251","80","yes","1280","24"
"350","85.1851851852","85.1851851852","715.938271605","715.938271605","black","no","xpyriment","legacy","legacy","0","202","NA","uniform","58674","1000","0.0170433241299","1","undefined","1","0","80","80","80","0","80","80","80","NA","80","80","0","80","NA","80","80","0","80","NA","80","NA","80","0","0","80","80","0","80","80","81","/","11/28/18 16:25:59","The main experiment item","yes","FIN__AB__M21__7%3A10%3A17.osexp","C:\Users\ERP Testing Room\Desktop\Joanna\morph21","no","mono","no","18","no","white","no","yes","1080","legacy","80","80","C:/Users/ERP Testing Room/Desktop/Joanna/morph21/subject-154.csv","xpyriment","Kafkaesque Koffka","3.2.5","0","/","space","NA","NA","NA","space","/","740","16627","NA","NA","NA","163247","740","2","legacy","1024","2","48000","-16","AB_m21","154","even","CW_L","FEEDER","1932","477724","474507","476216","165189","439729","NA","NA","NA","476206","475004","NA","474007","NA","473999","476206","1942","478074","NA","NA","475216","1932","1932","475607","473999","1932","475216","478074","morph21_Oliver/Morris","69","57991","81","yes","1280","14"
"300","85.3658536585","85.3658536585","716.609756098","716.609756098","black","no","xpyriment","legacy","legacy","0","206","NA","uniform","54282","1000","0.0184223131056","1","undefined","1","0","81","81","81","0","81","81","81","NA","81","81","0","81","NA","81","81","0","81","NA","81","NA","81","0","0","81","81","0","81","81","82","z","11/28/18 16:25:59","The main experiment item","yes","FIN__AB__M21__7%3A10%3A17.osexp","C:\Users\ERP Testing Room\Desktop\Joanna\morph21","no","mono","no","18","no","white","no","yes","1080","legacy","81","81","C:/Users/ERP Testing Room/Desktop/Joanna/morph21/subject-154.csv","xpyriment","Kafkaesque Koffka","3.2.5","0","z","space","NA","NA","NA","space","z","771","16627","NA","NA","NA","163247","771","2","legacy","1024","2","48000","-16","AB_m21","154","even","NW_L_SIMP","LONGNELS","1932","480842","479209","476216","165189","439729","NA","NA","NA","480838","479706","NA","478708","NA","478703","480838","1942","481142","NA","NA","479842","1932","1932","480242","478703","1932","479842","481142","morph21_Oliver/Morris","70","58762","82","yes","1280","17"
"350","84.3373493976","84.3373493976","719.963855422","719.963855422","black","no","xpyriment","legacy","legacy","0","206","NA","uniform","49871","1000","0.0200517334724","0","undefined","0","0","82","82","82","0","82","82","82","NA","82","82","0","82","NA","82","82","0","82","NA","82","NA","82","0","0","82","82","0","82","82","83","z","11/28/18 16:25:59","The main experiment item","yes","FIN__AB__M21__7%3A10%3A17.osexp","C:\Users\ERP Testing Room\Desktop\Joanna\morph21","no","mono","no","18","no","white","no","yes","1080","legacy","82","82","C:/Users/ERP Testing Room/Desktop/Joanna/morph21/subject-154.csv","xpyriment","Kafkaesque Koffka","3.2.5","0","None","space","NA","NA","NA","space","None","995","16627","NA","NA","NA","163247","995","2","legacy","1024","2","48000","-16","AB_m21","154","even","NW_L_SIMP","NUTLA","1932","484017","482342","476216","165189","439729","NA","NA","NA","480838","482839","NA","481842","NA","481838","484012","1942","484367","NA","NA","483017","1932","1932","483417","481838","1932","483017","484367","morph21_Oliver/Morris","70","59757","83","yes","1280","14"
"400","84.5238095238","84.5238095238","721.55952381","721.55952381","black","no","xpyriment","legacy","legacy","0","204","NA","uniform","58999","1000","0.016949439821","1","undefined","1","0","83","83","83","0","83","83","83","NA","83","83","0","83","NA","83","83","0","83","NA","83","NA","83","0","0","83","83","0","83","83","84","z","11/28/18 16:25:59","The main experiment item","yes","FIN__AB__M21__7%3A10%3A17.osexp","C:\Users\ERP Testing Room\Desktop\Joanna\morph21","no","mono","no","18","no","white","no","yes","1080","legacy","83","83","C:/Users/ERP Testing Room/Desktop/Joanna/morph21/subject-154.csv","xpyriment","Kafkaesque Koffka","3.2.5","0","z","space","NA","NA","NA","space","z","854","16627","NA","NA","NA","163247","854","2","legacy","1024","2","48000","-16","AB_m21","154","even","NW_L_COMP","PASSMENT","1932","488634","485451","487126","165189","439729","NA","NA","NA","487118","485948","NA","484950","NA","484947","487118","1942","489034","NA","NA","486126","1932","1932","486517","484947","1932","486126","489034","morph21_Oliver/Morris","71","60611","84","yes","1280","14"
"250","84.7058823529","84.7058823529","721.458823529","721.458823529","black","no","xpyriment","legacy","legacy","0","208","NA","uniform","60720","1000","0.0164690382082","1","undefined","1","0","84","84","84","0","84","84","84","NA","84","84","0","84","NA","84","84","0","84","NA","84","NA","84","0","0","84","84","0","84","84","85","z","11/28/18 16:25:59","The main experiment item","yes","FIN__AB__M21__7%3A10%3A17.osexp","C:\Users\ERP Testing Room\Desktop\Joanna\morph21","no","mono","no","18","no","white","no","yes","1080","legacy","84","84","C:/Users/ERP Testing Room/Desktop/Joanna/morph21/subject-154.csv","xpyriment","Kafkaesque Koffka","3.2.5","0","z","space","NA","NA","NA","space","z","713","16627","NA","NA","NA","163247","713","2","legacy","1024","2","48000","-16","AB_m21","154","even","FILL_NW","PLAODS","1932","491867","490184","487126","165189","439729","NA","NA","NA","491859","490681","NA","489684","NA","489672","491859","1942","492117","NA","NA","490867","1932","1932","491259","489672","1932","490867","492117","morph21_Oliver/Morris","72","61324","85","yes","1280","37"
"400","84.8837209302","84.8837209302","721.441860465","721.441860465","black","no","xpyriment","legacy","legacy","0","202","NA","uniform","62035","1000","0.0161199322963","1","undefined","1","0","85","85","85","0","85","85","85","NA","85","85","0","85","NA","85","85","0","85","NA","85","NA","85","0","0","85","85","0","85","85","86","/","11/28/18 16:25:59","The main experiment item","yes","FIN__AB__M21__7%3A10%3A17.osexp","C:\Users\ERP Testing Room\Desktop\Joanna\morph21","no","mono","no","18","no","white","no","yes","1080","legacy","85","85","C:/Users/ERP Testing Room/Desktop/Joanna/morph21/subject-154.csv","xpyriment","Kafkaesque Koffka","3.2.5","0","/","space","NA","NA","NA","space","/","720","16627","NA","NA","NA","163247","720","2","legacy","1024","2","48000","-16","AB_m21","154","even","CW_L","SHAPELY","1932","494884","493201","487126","165189","439729","NA","NA","NA","494877","493698","NA","492701","NA","492693","494877","1942","495284","NA","NA","493884","1932","1932","494276","492693","1932","493884","495284","morph21_Oliver/Morris","73","62044","86","yes","1280","35"
"350","85.0574712644","85.0574712644","720.379310345","720.379310345","black","no","xpyriment","legacy","legacy","0","208","NA","uniform","63821","1000","0.0156688237414","1","undefined","1","0","86","86","86","0","86","86","86","NA","86","86","0","86","NA","86","86","0","86","NA","86","NA","86","0","0","86","86","0","86","86","87","z","11/28/18 16:25:59","The main experiment item","yes","FIN__AB__M21__7%3A10%3A17.osexp","C:\Users\ERP Testing Room\Desktop\Joanna\morph21","no","mono","no","18","no","white","no","yes","1080","legacy","86","86","C:/Users/ERP Testing Room/Desktop/Joanna/morph21/subject-154.csv","xpyriment","Kafkaesque Koffka","3.2.5","0","z","space","NA","NA","NA","space","z","629","16627","NA","NA","NA","163247","629","2","legacy","1024","2","48000","-16","AB_m21","154","even","FILL_NW","BLANTH","1932","499644","496459","498135","165189","439729","NA","NA","NA","498132","496956","NA","495959","NA","495955","498132","1942","499994","NA","NA","497144","1932","1932","497535","495955","1932","497144","499994","morph21_Oliver/Morris","74","62673","87","yes","1280","3"
"400","85.2272727273","85.2272727273","719.113636364","719.113636364","black","no","xpyriment","legacy","legacy","0","202","NA","uniform","58624","1000","0.017057860262","1","undefined","1","0","87","87","87","0","87","87","87","NA","87","87","0","87","NA","87","87","0","87","NA","87","NA","87","0","0","87","87","0","87","87","88","/","11/28/18 16:25:59","The main experiment item","yes","FIN__AB__M21__7%3A10%3A17.osexp","C:\Users\ERP Testing Room\Desktop\Joanna\morph21","no","mono","no","18","no","white","no","yes","1080","legacy","87","87","C:/Users/ERP Testing Room/Desktop/Joanna/morph21/subject-154.csv","xpyriment","Kafkaesque Koffka","3.2.5","0","/","space","NA","NA","NA","space","/","609","16627","NA","NA","NA","163247","609","2","legacy","1024","2","48000","-16","AB_m21","154","even","CW_L","QUIETLY","1932","502836","501119","498135","165189","439729","NA","NA","NA","502831","501616","NA","500619","NA","500614","502831","1942","503236","NA","NA","501836","1932","1932","502236","500614","1932","501836","503236","morph21_Oliver/Morris","75","63282","88","yes","1280","36"
"200","85.393258427","85.393258427","720.730337079","720.730337079","black","no","xpyriment","legacy","legacy","0","204","NA","uniform","55483","1000","0.0180235387416","1","undefined","1","0","88","88","88","0","88","88","88","NA","88","88","0","88","NA","88","88","0","88","NA","88","NA","88","0","0","88","88","0","88","88","89","z","11/28/18 16:25:59","The main experiment item","yes","FIN__AB__M21__7%3A10%3A17.osexp","C:\Users\ERP Testing Room\Desktop\Joanna\morph21","no","mono","no","18","no","white","no","yes","1080","legacy","88","88","C:/Users/ERP Testing Room/Desktop/Joanna/morph21/subject-154.csv","xpyriment","Kafkaesque Koffka","3.2.5","0","z","space","NA","NA","NA","space","z","863","16627","NA","NA","NA","163247","863","2","legacy","1024","2","48000","-16","AB_m21","154","even","NW_L_COMP","FLIPORY","1932","506061","504394","498135","165189","439729","NA","NA","NA","506056","504891","NA","503894","NA","503886","506056","1942","506261","NA","NA","505061","1932","1932","505461","503886","1932","505061","506261","morph21_Oliver/Morris","76","64145","89","yes","1280","16"
"300","85.5555555556","85.5555555556","720.011111111","720.011111111","black","no","xpyriment","legacy","legacy","0","205","NA","uniform","65406","1000","0.0152891172064","1","undefined","1","0","89","89","89","0","89","89","89","NA","89","89","0","89","NA","89","89","0","89","NA","89","NA","89","0","0","89","89","0","89","89","90","z","11/28/18 16:25:59","The main experiment item","yes","FIN__AB__M21__7%3A10%3A17.osexp","C:\Users\ERP Testing Room\Desktop\Joanna\morph21","no","mono","no","18","no","white","no","yes","1080","legacy","89","89","C:/Users/ERP Testing Room/Desktop/Joanna/morph21/subject-154.csv","xpyriment","Kafkaesque Koffka","3.2.5","0","z","space","NA","NA","NA","space","z","656","16627","NA","NA","NA","163247","656","2","legacy","1024","2","48000","-16","AB_m21","154","even","NW_S_SIMP","HEIRIG","1932","510561","507369","509052","165189","439729","NA","NA","NA","509042","507866","NA","506869","NA","506859","509042","1942","510861","NA","NA","508052","1932","1932","508444","506858","1932","508052","510861","morph21_Oliver/Morris","77","64801","90","yes","1280","3"
