"ITI","acc","accuracy","average_response_time","avg_rt","background","bidi","canvas_backend","clock_backend","color_backend","compensation","cond_trig","condtrigtime","coordinates","coroutines_cycles","coroutines_duration","coroutines_mean_cycle_duration","correct","correct_instructions_1","correct_new_keyboard_response_1","count_BA_m21","count_ITI","count_blank_screen","count_blink_screen","count_block1","count_break1","count_break2","count_break3_1","count_canvas","count_correct_trigger","count_def_chain","count_end_screen","count_fixation_1","count_getting_started","count_inc_counter","count_incorrect_trigger","count_instructions_1","count_logger","count_logscript","count_new_coroutines","count_new_inline_script","count_new_keyboard_response_1","count_reset_counter_prep","count_reset_counter_run","count_responsescreen","count_sequence","count_start_trigger","count_target_present","count_word_trigger","counter","cresp","datetime","description","disable_garbage_collection","experiment_file","experiment_path","font_bold","font_family","font_italic","font_size","font_underline","foreground","form_clicks","fullscreen","height","keyboard_backend","live_row","live_row_block1","logfile","mouse_backend","opensesame_codename","opensesame_version","repeat_cycle","response","response_break1","response_break2","response_break3_1","response_end_screen","response_instructions_1","response_new_keyboard_response_1","response_time","response_time_break1","response_time_break2","response_time_break3_1","response_time_end_screen","response_time_instructions_1","response_time_new_keyboard_response_1","round_decimals","sampler_backend","sound_buf_size","sound_channels","sound_freq","sound_sample_size","start","subject_nr","subject_parity","targ_type","target","time_BA_m21","time_ITI","time_blank_screen","time_blink_screen","time_block1","time_break1","time_break2","time_break3_1","time_canvas","time_correct_trigger","time_def_chain","time_end_screen","time_fixation_1","time_getting_started","time_inc_counter","time_incorrect_trigger","time_instructions_1","time_logger","time_logscript","time_new_inline_script","time_new_keyboard_response_1","time_reset_counter_prep","time_reset_counter_run","time_responsescreen","time_sequence","time_start_trigger","time_target_present","time_word_trigger","title","total_correct","total_response_time","total_responses","uniform_coordinates","width","word_trig"
"350","0","0","996","996","black","no","xpyriment","legacy","legacy","0","205","NA","uniform","59828","1000","0.0167145818012","0","undefined","0","0","0","0","0","0","0","0","0","NA","0","0","0","0","NA","0","0","0","0","NA","0","NA","0","0","0","0","0","0","0","0","1","z","09/22/17 12:38:57","The main experiment item","yes","FIN__BA__M21__7%3A10%3A17.osexp","C:\Users\ERP Testing Room\Desktop\Joanna\morph21","no","mono","no","18","no","white","no","yes","1080","legacy","0","0","C:/Users/ERP Testing Room/Desktop/Joanna/morph21/subject-103.csv","xpyriment","Jazzy James","3.1.4","0","None","NA","NA","NA","NA","space","None","996","NA","NA","NA","NA","276325","996","2","legacy","1024","2","48000","-16","BA_m21","103","odd","NW_S_SIMP","BASKORY","1386","280561","278977","NA","277720","NA","NA","NA","NA","NA","279474","NA","278473","NA","278401","280557","1394","280911","NA","NA","279561","1386","1386","279961","278401","1386","279560","280911","morph21_Oliver/Morris","0","996","1","yes","1280","10"
"350","0","0","757.5","757.5","black","no","xpyriment","legacy","legacy","0","204","NA","uniform","75281","1000","0.013283564246","0","undefined","0","0","1","1","1","0","1","1","1","NA","1","1","0","1","NA","1","1","0","1","NA","1","NA","1","0","0","1","1","0","1","1","2","z","09/22/17 12:38:57","The main experiment item","yes","FIN__BA__M21__7%3A10%3A17.osexp","C:\Users\ERP Testing Room\Desktop\Joanna\morph21","no","mono","no","18","no","white","no","yes","1080","legacy","1","1","C:/Users/ERP Testing Room/Desktop/Joanna/morph21/subject-103.csv","xpyriment","Jazzy James","3.1.4","0","/","NA","NA","NA","NA","space","/","519","NA","NA","NA","NA","276325","519","2","legacy","1024","2","48000","-16","BA_m21","103","odd","NW_L_COMP","MOUTHIME","1386","283727","282136","NA","277720","NA","NA","NA","NA","NA","282633","NA","281636","NA","281626","283722","1394","284077","NA","NA","282727","1386","1386","283119","281626","1386","282727","284077","morph21_Oliver/Morris","0","1515","2","yes","1280","11"
"250","33.3333333333","33.3333333333","690","690","black","no","xpyriment","legacy","legacy","0","201","NA","uniform","78271","1000","0.0127761239795","1","undefined","1","0","2","2","2","0","2","2","2","NA","2","2","0","2","NA","2","2","0","2","NA","2","NA","2","0","0","2","2","0","2","2","3","/","09/22/17 12:38:57","The main experiment item","yes","FIN__BA__M21__7%3A10%3A17.osexp","C:\Users\ERP Testing Room\Desktop\Joanna\morph21","no","mono","no","18","no","white","no","yes","1080","legacy","2","2","C:/Users/ERP Testing Room/Desktop/Joanna/morph21/subject-103.csv","xpyriment","Jazzy James","3.1.4","0","/","NA","NA","NA","NA","space","/","555","NA","NA","NA","NA","276325","555","2","legacy","1024","2","48000","-16","BA_m21","103","odd","CW_S","HARMLESS","1386","288328","285227","286819","277720","NA","NA","NA","NA","286812","285725","NA","284727","NA","284724","286812","1394","288578","NA","NA","285819","1386","1386","286211","284724","1386","285819","288578","morph21_Oliver/Morris","1","2070","3","yes","1280","29"
"350","50","50","682.25","682.25","black","no","xpyriment","legacy","legacy","0","208","NA","uniform","69871","1000","0.0143120894219","1","undefined","1","0","3","3","3","0","3","3","3","NA","3","3","0","3","NA","3","3","0","3","NA","3","NA","3","0","0","3","3","0","3","3","4","z","09/22/17 12:38:57","The main experiment item","yes","FIN__BA__M21__7%3A10%3A17.osexp","C:\Users\ERP Testing Room\Desktop\Joanna\morph21","no","mono","no","18","no","white","no","yes","1080","legacy","3","3","C:/Users/ERP Testing Room/Desktop/Joanna/morph21/subject-103.csv","xpyriment","Jazzy James","3.1.4","0","z","NA","NA","NA","NA","space","z","659","NA","NA","NA","NA","276325","659","2","legacy","1024","2","48000","-16","BA_m21","103","odd","FILL_NW","DELP","1386","291411","289794","286819","277720","NA","NA","NA","NA","291402","290291","NA","289294","NA","289287","291402","1394","291761","NA","NA","290411","1386","1386","290803","289287","1386","290411","291761","morph21_Oliver/Morris","2","2729","4","yes","1280","14"
"250","60","60","635.2","635.2","black","no","xpyriment","legacy","legacy","0","207","NA","uniform","77674","1000","0.0128743208796","1","undefined","1","0","4","4","4","0","4","4","4","NA","4","4","0","4","NA","4","4","0","4","NA","4","NA","4","0","0","4","4","0","4","4","5","/","09/22/17 12:38:57","The main experiment item","yes","FIN__BA__M21__7%3A10%3A17.osexp","C:\Users\ERP Testing Room\Desktop\Joanna\morph21","no","mono","no","18","no","white","no","yes","1080","legacy","4","4","C:/Users/ERP Testing Room/Desktop/Joanna/morph21/subject-103.csv","xpyriment","Jazzy James","3.1.4","0","/","NA","NA","NA","NA","space","/","447","NA","NA","NA","NA","276325","447","2","legacy","1024","2","48000","-16","BA_m21","103","odd","FILL_W","SHIP","1386","294529","292944","286819","277720","NA","NA","NA","NA","294524","293442","NA","292444","NA","292435","294524","1394","294779","NA","NA","293536","1386","1386","293929","292435","1386","293536","294779","morph21_Oliver/Morris","3","3176","5","yes","1280","37"
"400","50","50","614.833333333","614.833333333","black","no","xpyriment","legacy","legacy","0","205","NA","uniform","70886","1000","0.014107157972","0","undefined","0","0","5","5","5","0","5","5","5","NA","5","5","0","5","NA","5","5","0","5","NA","5","NA","5","0","0","5","5","0","5","5","6","z","09/22/17 12:38:57","The main experiment item","yes","FIN__BA__M21__7%3A10%3A17.osexp","C:\Users\ERP Testing Room\Desktop\Joanna\morph21","no","mono","no","18","no","white","no","yes","1080","legacy","5","5","C:/Users/ERP Testing Room/Desktop/Joanna/morph21/subject-103.csv","xpyriment","Jazzy James","3.1.4","0","/","NA","NA","NA","NA","space","/","513","NA","NA","NA","NA","276325","513","2","legacy","1024","2","48000","-16","BA_m21","103","odd","NW_S_SIMP","ADVERTISELY","1386","299129","296021","297621","277720","NA","NA","NA","NA","294524","296518","NA","295521","NA","295517","297618","1394","299529","NA","NA","296629","1386","1386","297021","295517","1386","296629","299529","morph21_Oliver/Morris","3","3689","6","yes","1280","25"
"300","42.8571428571","42.8571428571","631.285714286","631.285714286","black","no","xpyriment","legacy","legacy","0","203","NA","uniform","62018","1000","0.0161243509949","0","undefined","0","0","6","6","6","0","6","6","6","NA","6","6","0","6","NA","6","6","0","6","NA","6","NA","6","0","0","6","6","0","6","6","7","z","09/22/17 12:38:57","The main experiment item","yes","FIN__BA__M21__7%3A10%3A17.osexp","C:\Users\ERP Testing Room\Desktop\Joanna\morph21","no","mono","no","18","no","white","no","yes","1080","legacy","6","6","C:/Users/ERP Testing Room/Desktop/Joanna/morph21/subject-103.csv","xpyriment","Jazzy James","3.1.4","0","/","NA","NA","NA","NA","space","/","730","NA","NA","NA","NA","276325","730","2","legacy","1024","2","48000","-16","BA_m21","103","odd","NW_S_COMP","CURTIDY","1386","302396","300812","297621","277720","NA","NA","NA","NA","294524","301310","NA","300312","NA","300302","302389","1394","302696","NA","NA","301396","1386","1386","301788","300302","1386","301396","302696","morph21_Oliver/Morris","3","4419","7","yes","1280","11"
"250","50","50","660.125","660.125","black","no","xpyriment","legacy","legacy","0","204","NA","uniform","59616","1000","0.0167740203972","1","undefined","1","0","7","7","7","0","7","7","7","NA","7","7","0","7","NA","7","7","0","7","NA","7","NA","7","0","0","7","7","0","7","7","8","z","09/22/17 12:38:57","The main experiment item","yes","FIN__BA__M21__7%3A10%3A17.osexp","C:\Users\ERP Testing Room\Desktop\Joanna\morph21","no","mono","no","18","no","white","no","yes","1080","legacy","7","7","C:/Users/ERP Testing Room/Desktop/Joanna/morph21/subject-103.csv","xpyriment","Jazzy James","3.1.4","0","z","NA","NA","NA","NA","space","z","862","NA","NA","NA","NA","276325","862","2","legacy","1024","2","48000","-16","BA_m21","103","odd","NW_L_COMP","STIRANGE","1386","305496","303904","297621","277720","NA","NA","NA","NA","305489","304401","NA","303404","NA","303397","305489","1394","305746","NA","NA","304496","1386","1386","304888","303397","1386","304496","305746","morph21_Oliver/Morris","4","5281","8","yes","1280","1"
"350","55.5555555556","55.5555555556","643","643","black","no","xpyriment","legacy","legacy","0","201","NA","uniform","73578","1000","0.0135910190546","1","undefined","1","0","8","8","8","0","8","8","8","NA","8","8","0","8","NA","8","8","0","8","NA","8","NA","8","0","0","8","8","0","8","8","9","/","09/22/17 12:38:57","The main experiment item","yes","FIN__BA__M21__7%3A10%3A17.osexp","C:\Users\ERP Testing Room\Desktop\Joanna\morph21","no","mono","no","18","no","white","no","yes","1080","legacy","8","8","C:/Users/ERP Testing Room/Desktop/Joanna/morph21/subject-103.csv","xpyriment","Jazzy James","3.1.4","0","/","NA","NA","NA","NA","space","/","506","NA","NA","NA","NA","276325","506","2","legacy","1024","2","48000","-16","BA_m21","103","odd","CW_S","NEATLY","1386","310105","307004","308596","277720","NA","NA","NA","NA","308591","307502","NA","306504","NA","306496","308591","1394","310455","NA","NA","307596","1386","1386","307996","306496","1386","307596","310455","morph21_Oliver/Morris","5","5787","9","yes","1280","33"
"250","50","50","677.8","677.8","black","no","xpyriment","legacy","legacy","0","206","NA","uniform","58107","1000","0.0172096305092","0","undefined","0","0","9","9","9","0","9","9","9","NA","9","9","0","9","NA","9","9","0","9","NA","9","NA","9","0","0","9","9","0","9","9","10","z","09/22/17 12:38:57","The main experiment item","yes","FIN__BA__M21__7%3A10%3A17.osexp","C:\Users\ERP Testing Room\Desktop\Joanna\morph21","no","mono","no","18","no","white","no","yes","1080","legacy","9","9","C:/Users/ERP Testing Room/Desktop/Joanna/morph21/subject-103.csv","xpyriment","Jazzy James","3.1.4","0","None","NA","NA","NA","NA","space","None","991","NA","NA","NA","NA","276325","991","2","legacy","1024","2","48000","-16","BA_m21","103","odd","NW_L_SIMP","SMOOTHFUL","1386","313256","311672","308596","277720","NA","NA","NA","NA","308591","312169","NA","311171","NA","311161","313247","1394","313506","NA","NA","312256","1386","1386","312647","311161","1386","312256","313506","morph21_Oliver/Morris","5","6778","10","yes","1280","19"
"300","54.5454545455","54.5454545455","667.818181818","667.818181818","black","no","xpyriment","legacy","legacy","0","207","NA","uniform","71048","1000","0.014074991555","1","undefined","1","0","10","10","10","0","10","10","10","NA","10","10","0","10","NA","10","10","0","10","NA","10","NA","10","0","0","10","10","0","10","10","11","/","09/22/17 12:38:57","The main experiment item","yes","FIN__BA__M21__7%3A10%3A17.osexp","C:\Users\ERP Testing Room\Desktop\Joanna\morph21","no","mono","no","18","no","white","no","yes","1080","legacy","10","10","C:/Users/ERP Testing Room/Desktop/Joanna/morph21/subject-103.csv","xpyriment","Jazzy James","3.1.4","0","/","NA","NA","NA","NA","space","/","568","NA","NA","NA","NA","276325","568","2","legacy","1024","2","48000","-16","BA_m21","103","odd","FILL_W","BLUNT","1386","316414","314814","308596","277720","NA","NA","NA","NA","316405","315311","NA","314314","NA","314311","316405","1394","316714","NA","NA","315414","1386","1386","315806","314310","1386","315414","316714","morph21_Oliver/Morris","6","7346","11","yes","1280","4"
"350","58.3333333333","58.3333333333","673.666666667","673.666666667","black","no","xpyriment","legacy","legacy","0","208","NA","uniform","71081","1000","0.0140684571123","1","undefined","1","0","11","11","11","0","11","11","11","NA","11","11","0","11","NA","11","11","0","11","NA","11","NA","11","0","0","11","11","0","11","11","12","z","09/22/17 12:38:57","The main experiment item","yes","FIN__BA__M21__7%3A10%3A17.osexp","C:\Users\ERP Testing Room\Desktop\Joanna\morph21","no","mono","no","18","no","white","no","yes","1080","legacy","11","11","C:/Users/ERP Testing Room/Desktop/Joanna/morph21/subject-103.csv","xpyriment","Jazzy James","3.1.4","0","z","NA","NA","NA","NA","space","z","738","NA","NA","NA","NA","276325","738","2","legacy","1024","2","48000","-16","BA_m21","103","odd","FILL_NW","DASP","1386","321056","317956","319548","277720","NA","NA","NA","NA","319542","318453","NA","317456","NA","317449","319542","1394","321406","NA","NA","318548","1386","1386","318939","317449","1386","318548","321406","morph21_Oliver/Morris","7","8084","12","yes","1280","13"
"350","61.5384615385","61.5384615385","688.153846154","688.153846154","black","no","xpyriment","legacy","legacy","0","206","NA","uniform","62828","1000","0.0159164703635","1","undefined","1","0","12","12","12","0","12","12","12","NA","12","12","0","12","NA","12","12","0","12","NA","12","NA","12","0","0","12","12","0","12","12","13","z","09/22/17 12:38:57","The main experiment item","yes","FIN__BA__M21__7%3A10%3A17.osexp","C:\Users\ERP Testing Room\Desktop\Joanna\morph21","no","mono","no","18","no","white","no","yes","1080","legacy","12","12","C:/Users/ERP Testing Room/Desktop/Joanna/morph21/subject-103.csv","xpyriment","Jazzy James","3.1.4","0","z","NA","NA","NA","NA","space","z","862","NA","NA","NA","NA","276325","862","2","legacy","1024","2","48000","-16","BA_m21","103","odd","NW_L_SIMP","CRITICANCE","1386","324240","322640","319548","277720","NA","NA","NA","NA","324236","323137","NA","322140","NA","322132","324236","1394","324590","NA","NA","323248","1386","1386","323639","322132","1386","323248","324590","morph21_Oliver/Morris","8","8946","13","yes","1280","22"
"200","64.2857142857","64.2857142857","699.428571429","699.428571429","black","no","xpyriment","legacy","legacy","0","203","NA","uniform","62664","1000","0.0159581258777","1","undefined","1","0","13","13","13","0","13","13","13","NA","13","13","0","13","NA","13","13","0","13","NA","13","NA","13","0","0","13","13","0","13","13","14","z","09/22/17 12:38:57","The main experiment item","yes","FIN__BA__M21__7%3A10%3A17.osexp","C:\Users\ERP Testing Room\Desktop\Joanna\morph21","no","mono","no","18","no","white","no","yes","1080","legacy","13","13","C:/Users/ERP Testing Room/Desktop/Joanna/morph21/subject-103.csv","xpyriment","Jazzy James","3.1.4","0","z","NA","NA","NA","NA","space","z","846","NA","NA","NA","NA","276325","846","2","legacy","1024","2","48000","-16","BA_m21","103","odd","NW_S_COMP","PILLIME","1386","327448","325848","319548","277720","NA","NA","NA","NA","327445","326345","NA","325348","NA","325341","327445","1394","327648","NA","NA","326456","1386","1386","326848","325341","1386","326456","327648","morph21_Oliver/Morris","9","9792","14","yes","1280","13"
"350","66.6666666667","66.6666666667","692.533333333","692.533333333","black","no","xpyriment","legacy","legacy","0","208","NA","uniform","71644","1000","0.0139579029647","1","undefined","1","0","14","14","14","0","14","14","14","NA","14","14","0","14","NA","14","14","0","14","NA","14","NA","14","0","0","14","14","0","14","14","15","z","09/22/17 12:38:57","The main experiment item","yes","FIN__BA__M21__7%3A10%3A17.osexp","C:\Users\ERP Testing Room\Desktop\Joanna\morph21","no","mono","no","18","no","white","no","yes","1080","legacy","14","14","C:/Users/ERP Testing Room/Desktop/Joanna/morph21/subject-103.csv","xpyriment","Jazzy James","3.1.4","0","z","NA","NA","NA","NA","space","z","596","NA","NA","NA","NA","276325","596","2","legacy","1024","2","48000","-16","BA_m21","103","odd","FILL_NW","HEAS","1386","332008","328907","330499","277720","NA","NA","NA","NA","330493","329405","NA","328406","NA","328397","330493","1394","332358","NA","NA","329499","1386","1386","329891","328397","1386","329499","332358","morph21_Oliver/Morris","10","10388","15","yes","1280","26"
"350","68.75","68.75","690.0625","690.0625","black","no","xpyriment","legacy","legacy","0","202","NA","uniform","69211","1000","0.014448570314","1","undefined","1","0","15","15","15","0","15","15","15","NA","15","15","0","15","NA","15","15","0","15","NA","15","NA","15","0","0","15","15","0","15","15","16","/","09/22/17 12:38:57","The main experiment item","yes","FIN__BA__M21__7%3A10%3A17.osexp","C:\Users\ERP Testing Room\Desktop\Joanna\morph21","no","mono","no","18","no","white","no","yes","1080","legacy","15","15","C:/Users/ERP Testing Room/Desktop/Joanna/morph21/subject-103.csv","xpyriment","Jazzy James","3.1.4","0","/","NA","NA","NA","NA","space","/","653","NA","NA","NA","NA","276325","653","2","legacy","1024","2","48000","-16","BA_m21","103","odd","CW_L","PUNCHER","1386","335241","333649","330499","277720","NA","NA","NA","NA","335233","334146","NA","333149","NA","333141","335233","1394","335591","NA","NA","334241","1386","1386","334633","333141","1386","334241","335591","morph21_Oliver/Morris","11","11041","16","yes","1280","1"
"250","70.5882352941","70.5882352941","693.588235294","693.588235294","black","no","xpyriment","legacy","legacy","0","201","NA","uniform","70649","1000","0.0141544820167","1","undefined","1","0","16","16","16","0","16","16","16","NA","16","16","0","16","NA","16","16","0","16","NA","16","NA","16","0","0","16","16","0","16","16","17","/","09/22/17 12:38:57","The main experiment item","yes","FIN__BA__M21__7%3A10%3A17.osexp","C:\Users\ERP Testing Room\Desktop\Joanna\morph21","no","mono","no","18","no","white","no","yes","1080","legacy","16","16","C:/Users/ERP Testing Room/Desktop/Joanna/morph21/subject-103.csv","xpyriment","Jazzy James","3.1.4","0","/","NA","NA","NA","NA","space","/","750","NA","NA","NA","NA","276325","750","2","legacy","1024","2","48000","-16","BA_m21","103","odd","CW_S","SEEKER","1386","338424","336833","330499","277720","NA","NA","NA","NA","338414","337330","NA","336333","NA","336327","338414","1394","338675","NA","NA","337424","1386","1386","337816","336327","1386","337424","338675","morph21_Oliver/Morris","12","11791","17","yes","1280","16"
"200","72.2222222222","72.2222222222","705.333333333","705.333333333","black","no","xpyriment","legacy","legacy","0","208","NA","uniform","62440","1000","0.0160153747598","1","undefined","1","0","17","17","17","0","17","17","17","NA","17","17","0","17","NA","17","17","0","17","NA","17","NA","17","0","0","17","17","0","17","17","18","z","09/22/17 12:38:57","The main experiment item","yes","FIN__BA__M21__7%3A10%3A17.osexp","C:\Users\ERP Testing Room\Desktop\Joanna\morph21","no","mono","no","18","no","white","no","yes","1080","legacy","17","17","C:/Users/ERP Testing Room/Desktop/Joanna/morph21/subject-103.csv","xpyriment","Jazzy James","3.1.4","0","z","NA","NA","NA","NA","space","z","905","NA","NA","NA","NA","276325","905","2","legacy","1024","2","48000","-16","BA_m21","103","odd","FILL_NW","VUNKS","1386","343025","339900","341516","277720","NA","NA","NA","NA","341513","340397","NA","339400","NA","339393","341513","1394","343225","NA","NA","340525","1386","1386","340916","339393","1386","340525","343225","morph21_Oliver/Morris","13","12696","18","yes","1280","49"
"200","73.6842105263","73.6842105263","708.263157895","708.263157895","black","no","xpyriment","legacy","legacy","0","201","NA","uniform","64339","1000","0.0155426724071","1","undefined","1","0","18","18","18","0","18","18","18","NA","18","18","0","18","NA","18","18","0","18","NA","18","NA","18","0","0","18","18","0","18","18","19","/","09/22/17 12:38:57","The main experiment item","yes","FIN__BA__M21__7%3A10%3A17.osexp","C:\Users\ERP Testing Room\Desktop\Joanna\morph21","no","mono","no","18","no","white","no","yes","1080","legacy","18","18","C:/Users/ERP Testing Room/Desktop/Joanna/morph21/subject-103.csv","xpyriment","Jazzy James","3.1.4","0","/","NA","NA","NA","NA","space","/","761","NA","NA","NA","NA","276325","761","2","legacy","1024","2","48000","-16","BA_m21","103","odd","CW_S","THRUSTER","1386","346125","344525","341516","277720","NA","NA","NA","NA","346122","345022","NA","344025","NA","344021","346122","1394","346325","NA","NA","345133","1386","1386","345525","344021","1386","345133","346325","morph21_Oliver/Morris","14","13457","19","yes","1280","24"
"400","75","75","706.55","706.55","black","no","xpyriment","legacy","legacy","0","208","NA","uniform","69583","1000","0.0143713263297","1","undefined","1","0","19","19","19","0","19","19","19","NA","19","19","0","19","NA","19","19","0","19","NA","19","NA","19","0","0","19","19","0","19","19","20","z","09/22/17 12:38:57","The main experiment item","yes","FIN__BA__M21__7%3A10%3A17.osexp","C:\Users\ERP Testing Room\Desktop\Joanna\morph21","no","mono","no","18","no","white","no","yes","1080","legacy","19","19","C:/Users/ERP Testing Room/Desktop/Joanna/morph21/subject-103.csv","xpyriment","Jazzy James","3.1.4","0","z","NA","NA","NA","NA","space","z","674","NA","NA","NA","NA","276325","674","2","legacy","1024","2","48000","-16","BA_m21","103","odd","FILL_NW","DROES","1386","349109","347526","341516","277720","NA","NA","NA","NA","349103","348023","NA","347026","NA","347021","349103","1394","349509","NA","NA","348109","1386","1386","348501","347021","1386","348109","349509","morph21_Oliver/Morris","15","14131","20","yes","1280","17"
"400","71.4285714286","71.4285714286","720","720","black","no","xpyriment","legacy","legacy","0","204","NA","uniform","57871","1000","0.0172798119956","0","undefined","0","0","20","20","20","0","20","20","20","NA","20","20","0","20","NA","20","20","0","20","NA","20","NA","20","0","0","20","20","0","20","20","21","z","09/22/17 12:38:57","The main experiment item","yes","FIN__BA__M21__7%3A10%3A17.osexp","C:\Users\ERP Testing Room\Desktop\Joanna\morph21","no","mono","no","18","no","white","no","yes","1080","legacy","20","20","C:/Users/ERP Testing Room/Desktop/Joanna/morph21/subject-103.csv","xpyriment","Jazzy James","3.1.4","0","None","NA","NA","NA","NA","space","None","989","NA","NA","NA","NA","276325","989","2","legacy","1024","2","48000","-16","BA_m21","103","odd","NW_L_COMP","ANGELITH","1386","353835","350709","352326","277720","NA","NA","NA","NA","349103","351207","NA","350209","NA","350205","352316","1394","354235","NA","NA","351326","1386","1386","351718","350205","1386","351326","354235","morph21_Oliver/Morris","15","15120","21","yes","1280","7"
"250","72.7272727273","72.7272727273","713.181818182","713.181818182","black","no","xpyriment","legacy","legacy","0","202","NA","uniform","71581","1000","0.0139701876196","1","undefined","1","0","21","21","21","0","21","21","21","NA","21","21","0","21","NA","21","21","0","21","NA","21","NA","21","0","0","21","21","0","21","21","22","/","09/22/17 12:38:57","The main experiment item","yes","FIN__BA__M21__7%3A10%3A17.osexp","C:\Users\ERP Testing Room\Desktop\Joanna\morph21","no","mono","no","18","no","white","no","yes","1080","legacy","21","21","C:/Users/ERP Testing Room/Desktop/Joanna/morph21/subject-103.csv","xpyriment","Jazzy James","3.1.4","0","/","NA","NA","NA","NA","space","/","570","NA","NA","NA","NA","276325","570","2","legacy","1024","2","48000","-16","BA_m21","103","odd","CW_L","FLEXIBLE","1386","357060","355476","352326","277720","NA","NA","NA","NA","357052","355973","NA","354976","NA","354968","357052","1394","357310","NA","NA","356060","1386","1386","356451","354968","1386","356060","357310","morph21_Oliver/Morris","16","15690","22","yes","1280","22"
"400","69.5652173913","69.5652173913","725.217391304","725.217391304","black","no","xpyriment","legacy","legacy","0","207","NA","uniform","58842","1000","0.0169946636756","0","undefined","0","0","22","22","22","0","22","22","22","NA","22","22","0","22","NA","22","22","0","22","NA","22","NA","22","0","0","22","22","0","22","22","23","/","09/22/17 12:38:57","The main experiment item","yes","FIN__BA__M21__7%3A10%3A17.osexp","C:\Users\ERP Testing Room\Desktop\Joanna\morph21","no","mono","no","18","no","white","no","yes","1080","legacy","22","22","C:/Users/ERP Testing Room/Desktop/Joanna/morph21/subject-103.csv","xpyriment","Jazzy James","3.1.4","0","None","NA","NA","NA","NA","space","None","990","NA","NA","NA","NA","276325","990","2","legacy","1024","2","48000","-16","BA_m21","103","odd","FILL_W","CEASE","1386","360202","358593","352326","277720","NA","NA","NA","NA","357052","359090","NA","358093","NA","358087","360191","1394","360602","NA","NA","359201","1386","1386","359593","358087","1386","359201","360602","morph21_Oliver/Morris","16","16680","23","yes","1280","18"
"300","70.8333333333","70.8333333333","734.041666667","734.041666667","black","no","xpyriment","legacy","legacy","0","205","NA","uniform","58243","1000","0.0171694452552","1","undefined","1","0","23","23","23","0","23","23","23","NA","23","23","0","23","NA","23","23","0","23","NA","23","NA","23","0","0","23","23","0","23","23","24","z","09/22/17 12:38:57","The main experiment item","yes","FIN__BA__M21__7%3A10%3A17.osexp","C:\Users\ERP Testing Room\Desktop\Joanna\morph21","no","mono","no","18","no","white","no","yes","1080","legacy","23","23","C:/Users/ERP Testing Room/Desktop/Joanna/morph21/subject-103.csv","xpyriment","Jazzy James","3.1.4","0","z","NA","NA","NA","NA","space","z","937","NA","NA","NA","NA","276325","937","2","legacy","1024","2","48000","-16","BA_m21","103","odd","NW_S_SIMP","YIELDIST","1386","364994","361885","363485","277720","NA","NA","NA","NA","363476","362382","NA","361385","NA","361381","363476","1394","365295","NA","NA","362485","1386","1386","362877","361381","1386","362485","365295","morph21_Oliver/Morris","17","17617","24","yes","1280","20"
"250","72","72","737.64","737.64","black","no","xpyriment","legacy","legacy","0","207","NA","uniform","65366","1000","0.0152984732124","1","undefined","1","0","24","24","24","0","24","24","24","NA","24","24","0","24","NA","24","24","0","24","NA","24","NA","24","0","0","24","24","0","24","24","25","/","09/22/17 12:38:57","The main experiment item","yes","FIN__BA__M21__7%3A10%3A17.osexp","C:\Users\ERP Testing Room\Desktop\Joanna\morph21","no","mono","no","18","no","white","no","yes","1080","legacy","24","24","C:/Users/ERP Testing Room/Desktop/Joanna/morph21/subject-103.csv","xpyriment","Jazzy James","3.1.4","0","/","NA","NA","NA","NA","space","/","824","NA","NA","NA","NA","276325","824","2","legacy","1024","2","48000","-16","BA_m21","103","odd","FILL_W","SLIM","1386","368095","366503","363485","277720","NA","NA","NA","NA","368084","367000","NA","366003","NA","365993","368084","1394","368345","NA","NA","367095","1386","1386","367486","365993","1386","367094","368345","morph21_Oliver/Morris","18","18441","25","yes","1280","6"
"250","73.0769230769","73.0769230769","737.461538462","737.461538462","black","no","xpyriment","legacy","legacy","0","201","NA","uniform","68362","1000","0.014628009713","1","undefined","1","0","25","25","25","0","25","25","25","NA","25","25","0","25","NA","25","25","0","25","NA","25","NA","25","0","0","25","25","0","25","25","26","/","09/22/17 12:38:57","The main experiment item","yes","FIN__BA__M21__7%3A10%3A17.osexp","C:\Users\ERP Testing Room\Desktop\Joanna\morph21","no","mono","no","18","no","white","no","yes","1080","legacy","25","25","C:/Users/ERP Testing Room/Desktop/Joanna/morph21/subject-103.csv","xpyriment","Jazzy James","3.1.4","0","/","NA","NA","NA","NA","space","/","733","NA","NA","NA","NA","276325","733","2","legacy","1024","2","48000","-16","BA_m21","103","odd","CW_S","AWARENESS","1386","371161","369545","363485","277720","NA","NA","NA","NA","371155","370042","NA","369045","NA","369038","371155","1394","371411","NA","NA","370161","1386","1386","370553","369038","1386","370161","371411","morph21_Oliver/Morris","19","19174","26","yes","1280","44"
"300","74.0740740741","74.0740740741","740.851851852","740.851851852","black","no","xpyriment","legacy","legacy","0","208","NA","uniform","58397","1000","0.0171241673374","1","undefined","1","0","26","26","26","0","26","26","26","NA","26","26","0","26","NA","26","26","0","26","NA","26","NA","26","0","0","26","26","0","26","26","27","z","09/22/17 12:38:57","The main experiment item","yes","FIN__BA__M21__7%3A10%3A17.osexp","C:\Users\ERP Testing Room\Desktop\Joanna\morph21","no","mono","no","18","no","white","no","yes","1080","legacy","26","26","C:/Users/ERP Testing Room/Desktop/Joanna/morph21/subject-103.csv","xpyriment","Jazzy James","3.1.4","0","z","NA","NA","NA","NA","space","z","829","NA","NA","NA","NA","276325","829","2","legacy","1024","2","48000","-16","BA_m21","103","odd","FILL_NW","SCURE","1386","375870","372770","374361","277720","NA","NA","NA","NA","374352","373267","NA","372270","NA","372262","374352","1394","376170","NA","NA","373361","1386","1386","373753","372262","1386","373361","376170","morph21_Oliver/Morris","20","20003","27","yes","1280","41"
"300","75","75","745.821428571","745.821428571","black","no","xpyriment","legacy","legacy","0","208","NA","uniform","59636","1000","0.0167683949292","1","undefined","1","0","27","27","27","0","27","27","27","NA","27","27","0","27","NA","27","27","0","27","NA","27","NA","27","0","0","27","27","0","27","27","28","z","09/22/17 12:38:57","The main experiment item","yes","FIN__BA__M21__7%3A10%3A17.osexp","C:\Users\ERP Testing Room\Desktop\Joanna\morph21","no","mono","no","18","no","white","no","yes","1080","legacy","27","27","C:/Users/ERP Testing Room/Desktop/Joanna/morph21/subject-103.csv","xpyriment","Jazzy James","3.1.4","0","z","NA","NA","NA","NA","space","z","880","NA","NA","NA","NA","276325","880","2","legacy","1024","2","48000","-16","BA_m21","103","odd","FILL_NW","BAFED","1386","379078","377495","374361","277720","NA","NA","NA","NA","379072","377992","NA","376995","NA","376988","379072","1394","379378","NA","NA","378078","1386","1386","378470","376988","1386","378078","379378","morph21_Oliver/Morris","21","20883","28","yes","1280","1"
"200","75.8620689655","75.8620689655","742.344827586","742.344827586","black","no","xpyriment","legacy","legacy","0","201","NA","uniform","73145","1000","0.0136714744685","1","undefined","1","0","28","28","28","0","28","28","28","NA","28","28","0","28","NA","28","28","0","28","NA","28","NA","28","0","0","28","28","0","28","28","29","/","09/22/17 12:38:57","The main experiment item","yes","FIN__BA__M21__7%3A10%3A17.osexp","C:\Users\ERP Testing Room\Desktop\Joanna\morph21","no","mono","no","18","no","white","no","yes","1080","legacy","28","28","C:/Users/ERP Testing Room/Desktop/Joanna/morph21/subject-103.csv","xpyriment","Jazzy James","3.1.4","0","/","NA","NA","NA","NA","space","/","645","NA","NA","NA","NA","276325","645","2","legacy","1024","2","48000","-16","BA_m21","103","odd","CW_S","BOLDNESS","1386","382146","380562","374361","277720","NA","NA","NA","NA","382141","381059","NA","380062","NA","380054","382141","1394","382346","NA","NA","381146","1386","1386","381546","380054","1386","381146","382346","morph21_Oliver/Morris","22","21528","29","yes","1280","41"
"200","76.6666666667","76.6666666667","743","743","black","no","xpyriment","legacy","legacy","0","202","NA","uniform","59023","1000","0.0169425478203","1","undefined","1","0","29","29","29","0","29","29","29","NA","29","29","0","29","NA","29","29","0","29","NA","29","NA","29","0","0","29","29","0","29","29","30","/","09/22/17 12:38:57","The main experiment item","yes","FIN__BA__M21__7%3A10%3A17.osexp","C:\Users\ERP Testing Room\Desktop\Joanna\morph21","no","mono","no","18","no","white","no","yes","1080","legacy","29","29","C:/Users/ERP Testing Room/Desktop/Joanna/morph21/subject-103.csv","xpyriment","Jazzy James","3.1.4","0","/","NA","NA","NA","NA","space","/","762","NA","NA","NA","NA","276325","762","2","legacy","1024","2","48000","-16","BA_m21","103","odd","CW_L","BONELESS","1386","386705","383588","385196","277720","NA","NA","NA","NA","385193","384085","NA","383088","NA","383076","385193","1394","386905","NA","NA","384205","1386","1386","384596","383076","1386","384205","386905","morph21_Oliver/Morris","23","22290","30","yes","1280","34"
"300","74.1935483871","74.1935483871","739.612903226","739.612903226","black","no","xpyriment","legacy","legacy","0","205","NA","uniform","68622","1000","0.0145725860511","0","undefined","0","0","30","30","30","0","30","30","30","NA","30","30","0","30","NA","30","30","0","30","NA","30","NA","30","0","0","30","30","0","30","30","31","z","09/22/17 12:38:57","The main experiment item","yes","FIN__BA__M21__7%3A10%3A17.osexp","C:\Users\ERP Testing Room\Desktop\Joanna\morph21","no","mono","no","18","no","white","no","yes","1080","legacy","30","30","C:/Users/ERP Testing Room/Desktop/Joanna/morph21/subject-103.csv","xpyriment","Jazzy James","3.1.4","0","/","NA","NA","NA","NA","space","/","638","NA","NA","NA","NA","276325","638","2","legacy","1024","2","48000","-16","BA_m21","103","odd","NW_S_SIMP","NEXTNESS","1386","389680","388080","385196","277720","NA","NA","NA","NA","385193","388577","NA","387580","NA","387573","389675","1394","389980","NA","NA","388680","1386","1386","389080","387573","1386","388680","389980","morph21_Oliver/Morris","23","22928","31","yes","1280","9"
"200","75","75","741.84375","741.84375","black","no","xpyriment","legacy","legacy","0","201","NA","uniform","58883","1000","0.0169828303585","1","undefined","1","0","31","31","31","0","31","31","31","NA","31","31","0","31","NA","31","31","0","31","NA","31","NA","31","0","0","31","31","0","31","31","32","/","09/22/17 12:38:57","The main experiment item","yes","FIN__BA__M21__7%3A10%3A17.osexp","C:\Users\ERP Testing Room\Desktop\Joanna\morph21","no","mono","no","18","no","white","no","yes","1080","legacy","31","31","C:/Users/ERP Testing Room/Desktop/Joanna/morph21/subject-103.csv","xpyriment","Jazzy James","3.1.4","0","/","NA","NA","NA","NA","space","/","811","NA","NA","NA","NA","276325","811","2","legacy","1024","2","48000","-16","BA_m21","103","odd","CW_S","AMUSEMENT","1386","392755","391172","385196","277720","NA","NA","NA","NA","392749","391669","NA","390672","NA","390663","392749","1394","392955","NA","NA","391755","1386","1386","392147","390663","1386","391755","392955","morph21_Oliver/Morris","24","23739","32","yes","1280","38"
"250","75.7575757576","75.7575757576","740.363636364","740.363636364","black","no","xpyriment","legacy","legacy","0","201","NA","uniform","68719","1000","0.0145520161818","1","undefined","1","0","32","32","32","0","32","32","32","NA","32","32","0","32","NA","32","32","0","32","NA","32","NA","32","0","0","32","32","0","32","32","33","/","09/22/17 12:38:57","The main experiment item","yes","FIN__BA__M21__7%3A10%3A17.osexp","C:\Users\ERP Testing Room\Desktop\Joanna\morph21","no","mono","no","18","no","white","no","yes","1080","legacy","32","32","C:/Users/ERP Testing Room/Desktop/Joanna/morph21/subject-103.csv","xpyriment","Jazzy James","3.1.4","0","/","NA","NA","NA","NA","space","/","693","NA","NA","NA","NA","276325","693","2","legacy","1024","2","48000","-16","BA_m21","103","odd","CW_S","HUGELY","1386","397214","394122","395705","277720","NA","NA","NA","NA","395701","394619","NA","393622","NA","393616","395701","1394","397464","NA","NA","394705","1386","1386","395105","393616","1386","394705","397464","morph21_Oliver/Morris","25","24432","33","yes","1280","35"
"350","76.4705882353","76.4705882353","739.970588235","739.970588235","black","no","xpyriment","legacy","legacy","0","201","NA","uniform","65921","1000","0.0151696727902","1","undefined","1","0","33","33","33","0","33","33","33","NA","33","33","0","33","NA","33","33","0","33","NA","33","NA","33","0","0","33","33","0","33","33","34","/","09/22/17 12:38:57","The main experiment item","yes","FIN__BA__M21__7%3A10%3A17.osexp","C:\Users\ERP Testing Room\Desktop\Joanna\morph21","no","mono","no","18","no","white","no","yes","1080","legacy","33","33","C:/Users/ERP Testing Room/Desktop/Joanna/morph21/subject-103.csv","xpyriment","Jazzy James","3.1.4","0","/","NA","NA","NA","NA","space","/","727","NA","NA","NA","NA","276325","727","2","legacy","1024","2","48000","-16","BA_m21","103","odd","CW_S","SINGER","1386","400256","398673","395705","277720","NA","NA","NA","NA","400249","399170","NA","398172","NA","398169","400249","1394","400606","NA","NA","399256","1386","1386","399648","398169","1386","399256","400606","morph21_Oliver/Morris","26","25159","34","yes","1280","17"
"300","77.1428571429","77.1428571429","740.342857143","740.342857143","black","no","xpyriment","legacy","legacy","0","201","NA","uniform","64263","1000","0.0155610537946","1","undefined","1","0","34","34","34","0","34","34","34","NA","34","34","0","34","NA","34","34","0","34","NA","34","NA","34","0","0","34","34","0","34","34","35","/","09/22/17 12:38:57","The main experiment item","yes","FIN__BA__M21__7%3A10%3A17.osexp","C:\Users\ERP Testing Room\Desktop\Joanna\morph21","no","mono","no","18","no","white","no","yes","1080","legacy","34","34","C:/Users/ERP Testing Room/Desktop/Joanna/morph21/subject-103.csv","xpyriment","Jazzy James","3.1.4","0","/","NA","NA","NA","NA","space","/","753","NA","NA","NA","NA","276325","753","2","legacy","1024","2","48000","-16","BA_m21","103","odd","CW_S","DETECTABLE","1386","403398","401806","395705","277720","NA","NA","NA","NA","403392","402304","NA","401306","NA","401296","403392","1394","403698","NA","NA","402398","1386","1386","402790","401296","1386","402398","403698","morph21_Oliver/Morris","27","25912","35","yes","1280","1"
"350","77.7777777778","77.7777777778","739.444444444","739.444444444","black","no","xpyriment","legacy","legacy","0","202","NA","uniform","68157","1000","0.0146720072773","1","undefined","1","0","35","35","35","0","35","35","35","NA","35","35","0","35","NA","35","35","0","35","NA","35","NA","35","0","0","35","35","0","35","35","36","/","09/22/17 12:38:57","The main experiment item","yes","FIN__BA__M21__7%3A10%3A17.osexp","C:\Users\ERP Testing Room\Desktop\Joanna\morph21","no","mono","no","18","no","white","no","yes","1080","legacy","35","35","C:/Users/ERP Testing Room/Desktop/Joanna/morph21/subject-103.csv","xpyriment","Jazzy James","3.1.4","0","/","NA","NA","NA","NA","space","/","708","NA","NA","NA","NA","276325","708","2","legacy","1024","2","48000","-16","BA_m21","103","odd","CW_L","SWIMMER","1386","408007","404915","406498","277720","NA","NA","NA","NA","406491","405412","NA","404415","NA","404403","406491","1394","408357","NA","NA","405498","1386","1386","405890","404403","1386","405498","408357","morph21_Oliver/Morris","28","26620","36","yes","1280","5"
"400","78.3783783784","78.3783783784","737.189189189","737.189189189","black","no","xpyriment","legacy","legacy","0","203","NA","uniform","74279","1000","0.0134627552875","1","undefined","1","0","36","36","36","0","36","36","36","NA","36","36","0","36","NA","36","36","0","36","NA","36","NA","36","0","0","36","36","0","36","36","37","z","09/22/17 12:38:57","The main experiment item","yes","FIN__BA__M21__7%3A10%3A17.osexp","C:\Users\ERP Testing Room\Desktop\Joanna\morph21","no","mono","no","18","no","white","no","yes","1080","legacy","36","36","C:/Users/ERP Testing Room/Desktop/Joanna/morph21/subject-103.csv","xpyriment","Jazzy James","3.1.4","0","z","NA","NA","NA","NA","space","z","656","NA","NA","NA","NA","276325","656","2","legacy","1024","2","48000","-16","BA_m21","103","odd","NW_S_COMP","ALTARIG","1386","411173","409582","406498","277720","NA","NA","NA","NA","411163","410079","NA","409082","NA","409073","411163","1394","411573","NA","NA","410174","1386","1386","410565","409073","1386","410173","411573","morph21_Oliver/Morris","29","27276","37","yes","1280","7"
"200","78.9473684211","78.9473684211","743.052631579","743.052631579","black","no","xpyriment","legacy","legacy","0","203","NA","uniform","63207","1000","0.0158210324806","1","undefined","1","0","37","37","37","0","37","37","37","NA","37","37","0","37","NA","37","37","0","37","NA","37","NA","37","0","0","37","37","0","37","37","38","z","09/22/17 12:38:57","The main experiment item","yes","FIN__BA__M21__7%3A10%3A17.osexp","C:\Users\ERP Testing Room\Desktop\Joanna\morph21","no","mono","no","18","no","white","no","yes","1080","legacy","37","37","C:/Users/ERP Testing Room/Desktop/Joanna/morph21/subject-103.csv","xpyriment","Jazzy James","3.1.4","0","z","NA","NA","NA","NA","space","z","960","NA","NA","NA","NA","276325","960","2","legacy","1024","2","48000","-16","BA_m21","103","odd","NW_S_COMP","ELMILT","1386","414382","412790","406498","277720","NA","NA","NA","NA","414372","413287","NA","412290","NA","412279","414372","1394","414582","NA","NA","413382","1386","1386","413774","412279","1386","413382","414582","morph21_Oliver/Morris","30","28236","38","yes","1280","10"
"300","79.4871794872","79.4871794872","735.897435897","735.897435897","black","no","xpyriment","legacy","legacy","0","207","NA","uniform","72236","1000","0.0138435129298","1","undefined","1","0","38","38","38","0","38","38","38","NA","38","38","0","38","NA","38","38","0","38","NA","38","NA","38","0","0","38","38","0","38","38","39","/","09/22/17 12:38:57","The main experiment item","yes","FIN__BA__M21__7%3A10%3A17.osexp","C:\Users\ERP Testing Room\Desktop\Joanna\morph21","no","mono","no","18","no","white","no","yes","1080","legacy","38","38","C:/Users/ERP Testing Room/Desktop/Joanna/morph21/subject-103.csv","xpyriment","Jazzy James","3.1.4","0","/","NA","NA","NA","NA","space","/","464","NA","NA","NA","NA","276325","464","2","legacy","1024","2","48000","-16","BA_m21","103","odd","FILL_W","SICK","1386","418892","415790","417383","277720","NA","NA","NA","NA","417373","416288","NA","415290","NA","415286","417373","1394","419192","NA","NA","416383","1386","1386","416775","415285","1386","416383","419192","morph21_Oliver/Morris","31","28700","39","yes","1280","36"
"200","77.5","77.5","742.35","742.35","black","no","xpyriment","legacy","legacy","0","203","NA","uniform","54104","1000","0.0184829217803","0","undefined","0","0","39","39","39","0","39","39","39","NA","39","39","0","39","NA","39","39","0","39","NA","39","NA","39","0","0","39","39","0","39","39","40","z","09/22/17 12:38:57","The main experiment item","yes","FIN__BA__M21__7%3A10%3A17.osexp","C:\Users\ERP Testing Room\Desktop\Joanna\morph21","no","mono","no","18","no","white","no","yes","1080","legacy","39","39","C:/Users/ERP Testing Room/Desktop/Joanna/morph21/subject-103.csv","xpyriment","Jazzy James","3.1.4","0","None","NA","NA","NA","NA","space","None","994","NA","NA","NA","NA","276325","994","2","legacy","1024","2","48000","-16","BA_m21","103","odd","NW_S_COMP","HAPPENANGE","1386","422050","420450","417383","277720","NA","NA","NA","NA","417373","420947","NA","419950","NA","419946","422044","1394","422250","NA","NA","421050","1386","1386","421442","419946","1386","421050","422250","morph21_Oliver/Morris","31","29694","40","yes","1280","2"
"250","78.0487804878","78.0487804878","746.365853659","746.365853659","black","no","xpyriment","legacy","legacy","0","204","NA","uniform","61626","1000","0.0162269172103","1","undefined","1","0","40","40","40","0","40","40","40","NA","40","40","0","40","NA","40","40","0","40","NA","40","NA","40","0","0","40","40","0","40","40","41","z","09/22/17 12:38:57","The main experiment item","yes","FIN__BA__M21__7%3A10%3A17.osexp","C:\Users\ERP Testing Room\Desktop\Joanna\morph21","no","mono","no","18","no","white","no","yes","1080","legacy","40","40","C:/Users/ERP Testing Room/Desktop/Joanna/morph21/subject-103.csv","xpyriment","Jazzy James","3.1.4","0","z","NA","NA","NA","NA","space","z","907","NA","NA","NA","NA","276325","907","2","legacy","1024","2","48000","-16","BA_m21","103","odd","NW_L_COMP","BREAKIDY","1386","425067","423483","417383","277720","NA","NA","NA","NA","425060","423981","NA","422983","NA","422972","425060","1394","425317","NA","NA","424067","1386","1386","424458","422972","1386","424067","425317","morph21_Oliver/Morris","32","30601","41","yes","1280","23"
"300","78.5714285714","78.5714285714","747.428571429","747.428571429","black","no","xpyriment","legacy","legacy","0","202","NA","uniform","66015","1000","0.0151480724078","1","undefined","1","0","41","41","41","0","41","41","41","NA","41","41","0","41","NA","41","41","0","41","NA","41","NA","41","0","0","41","41","0","41","41","42","/","09/22/17 12:38:57","The main experiment item","yes","FIN__BA__M21__7%3A10%3A17.osexp","C:\Users\ERP Testing Room\Desktop\Joanna\morph21","no","mono","no","18","no","white","no","yes","1080","legacy","41","41","C:/Users/ERP Testing Room/Desktop/Joanna/morph21/subject-103.csv","xpyriment","Jazzy James","3.1.4","0","/","NA","NA","NA","NA","space","/","791","NA","NA","NA","NA","276325","791","2","legacy","1024","2","48000","-16","BA_m21","103","odd","CW_L","KNOCKER","1386","429667","426575","428159","277720","NA","NA","NA","NA","428152","427072","NA","426075","NA","426065","428152","1394","429967","NA","NA","427159","1386","1386","427550","426065","1386","427159","429967","morph21_Oliver/Morris","33","31392","42","yes","1280","4"
"350","79.0697674419","79.0697674419","751.627906977","751.627906977","black","no","xpyriment","legacy","legacy","0","203","NA","uniform","57627","1000","0.0173529769032","1","undefined","1","0","42","42","42","0","42","42","42","NA","42","42","0","42","NA","42","42","0","42","NA","42","NA","42","0","0","42","42","0","42","42","43","z","09/22/17 12:38:57","The main experiment item","yes","FIN__BA__M21__7%3A10%3A17.osexp","C:\Users\ERP Testing Room\Desktop\Joanna\morph21","no","mono","no","18","no","white","no","yes","1080","legacy","42","42","C:/Users/ERP Testing Room/Desktop/Joanna/morph21/subject-103.csv","xpyriment","Jazzy James","3.1.4","0","z","NA","NA","NA","NA","space","z","928","NA","NA","NA","NA","276325","928","2","legacy","1024","2","48000","-16","BA_m21","103","odd","NW_S_COMP","HEIGHTENGE","1386","432742","431159","428159","277720","NA","NA","NA","NA","432736","431656","NA","430659","NA","430648","432736","1394","433092","NA","NA","431742","1386","1386","432134","430648","1386","431742","433092","morph21_Oliver/Morris","34","32320","43","yes","1280","18"
"400","79.5454545455","79.5454545455","743.659090909","743.659090909","black","no","xpyriment","legacy","legacy","0","207","NA","uniform","77645","1000","0.0128791293709","1","undefined","1","0","43","43","43","0","43","43","43","NA","43","43","0","43","NA","43","43","0","43","NA","43","NA","43","0","0","43","43","0","43","43","44","/","09/22/17 12:38:57","The main experiment item","yes","FIN__BA__M21__7%3A10%3A17.osexp","C:\Users\ERP Testing Room\Desktop\Joanna\morph21","no","mono","no","18","no","white","no","yes","1080","legacy","43","43","C:/Users/ERP Testing Room/Desktop/Joanna/morph21/subject-103.csv","xpyriment","Jazzy James","3.1.4","0","/","NA","NA","NA","NA","space","/","401","NA","NA","NA","NA","276325","401","2","legacy","1024","2","48000","-16","BA_m21","103","odd","FILL_W","EAT","1386","435902","434293","428159","277720","NA","NA","NA","NA","435891","434790","NA","433793","NA","433784","435891","1394","436302","NA","NA","434902","1386","1386","435293","433784","1386","434902","436302","morph21_Oliver/Morris","35","32721","44","yes","1280","25"
"300","77.7777777778","77.7777777778","748.044444444","748.044444444","black","no","xpyriment","legacy","legacy","0","205","NA","uniform","53759","1000","0.0186015364869","0","undefined","0","0","44","44","44","0","44","44","44","NA","44","44","0","44","NA","44","44","0","44","NA","44","NA","44","0","0","44","44","0","44","44","45","z","09/22/17 12:38:57","The main experiment item","yes","FIN__BA__M21__7%3A10%3A17.osexp","C:\Users\ERP Testing Room\Desktop\Joanna\morph21","no","mono","no","18","no","white","no","yes","1080","legacy","44","44","C:/Users/ERP Testing Room/Desktop/Joanna/morph21/subject-103.csv","xpyriment","Jazzy James","3.1.4","0","/","NA","NA","NA","NA","space","/","941","NA","NA","NA","NA","276325","941","2","legacy","1024","2","48000","-16","BA_m21","103","odd","NW_S_SIMP","HEIRIC","1386","440710","437610","439202","277720","NA","NA","NA","NA","435891","438107","NA","437110","NA","437102","439198","1394","441010","NA","NA","438210","1386","1386","438602","437102","1386","438210","441010","morph21_Oliver/Morris","35","33662","45","yes","1280","3"
"300","78.2608695652","78.2608695652","751.326086957","751.326086957","black","no","xpyriment","legacy","legacy","0","208","NA","uniform","66232","1000","0.0150984418408","1","undefined","1","0","45","45","45","0","45","45","45","NA","45","45","0","45","NA","45","45","0","45","NA","45","NA","45","0","0","45","45","0","45","45","46","z","09/22/17 12:38:57","The main experiment item","yes","FIN__BA__M21__7%3A10%3A17.osexp","C:\Users\ERP Testing Room\Desktop\Joanna\morph21","no","mono","no","18","no","white","no","yes","1080","legacy","45","45","C:/Users/ERP Testing Room/Desktop/Joanna/morph21/subject-103.csv","xpyriment","Jazzy James","3.1.4","0","z","NA","NA","NA","NA","space","z","899","NA","NA","NA","NA","276325","899","2","legacy","1024","2","48000","-16","BA_m21","103","odd","FILL_NW","KEMT","1386","443819","442235","439202","277720","NA","NA","NA","NA","443812","442732","NA","441735","NA","441729","443812","1394","444119","NA","NA","442819","1386","1386","443210","441729","1386","442819","444119","morph21_Oliver/Morris","36","34561","46","yes","1280","32"
"400","78.7234042553","78.7234042553","752.978723404","752.978723404","black","no","xpyriment","legacy","legacy","0","207","NA","uniform","68504","1000","0.0145976877263","1","undefined","1","0","46","46","46","0","46","46","46","NA","46","46","0","46","NA","46","46","0","46","NA","46","NA","46","0","0","46","46","0","46","46","47","/","09/22/17 12:38:57","The main experiment item","yes","FIN__BA__M21__7%3A10%3A17.osexp","C:\Users\ERP Testing Room\Desktop\Joanna\morph21","no","mono","no","18","no","white","no","yes","1080","legacy","46","46","C:/Users/ERP Testing Room/Desktop/Joanna/morph21/subject-103.csv","xpyriment","Jazzy James","3.1.4","0","/","NA","NA","NA","NA","space","/","829","NA","NA","NA","NA","276325","829","2","legacy","1024","2","48000","-16","BA_m21","103","odd","FILL_W","STEEP","1386","446985","445394","439202","277720","NA","NA","NA","NA","446980","445891","NA","444894","NA","444882","446980","1394","447385","NA","NA","445985","1386","1386","446377","444882","1386","445985","447385","morph21_Oliver/Morris","37","35390","47","yes","1280","16"
"300","77.0833333333","77.0833333333","755.083333333","755.083333333","black","no","xpyriment","legacy","legacy","0","205","NA","uniform","60285","1000","0.0165878742639","0","undefined","0","0","47","47","47","0","47","47","47","NA","47","47","0","47","NA","47","47","0","47","NA","47","NA","47","0","0","47","47","0","47","47","48","z","09/22/17 12:38:57","The main experiment item","yes","FIN__BA__M21__7%3A10%3A17.osexp","C:\Users\ERP Testing Room\Desktop\Joanna\morph21","no","mono","no","18","no","white","no","yes","1080","legacy","47","47","C:/Users/ERP Testing Room/Desktop/Joanna/morph21/subject-103.csv","xpyriment","Jazzy James","3.1.4","0","/","NA","NA","NA","NA","space","/","854","NA","NA","NA","NA","276325","854","2","legacy","1024","2","48000","-16","BA_m21","103","odd","NW_S_SIMP","HELMETOUS","1386","451653","448561","450144","277720","NA","NA","NA","NA","446980","449058","NA","448061","NA","448056","450136","1394","451954","NA","NA","449144","1386","1386","449536","448056","1386","449144","451954","morph21_Oliver/Morris","37","36244","48","yes","1280","14"
"300","77.5510204082","77.5510204082","756.693877551","756.693877551","black","no","xpyriment","legacy","legacy","0","208","NA","uniform","65621","1000","0.0152390240929","1","undefined","1","0","48","48","48","0","48","48","48","NA","48","48","0","48","NA","48","48","0","48","NA","48","NA","48","0","0","48","48","0","48","48","49","z","09/22/17 12:38:57","The main experiment item","yes","FIN__BA__M21__7%3A10%3A17.osexp","C:\Users\ERP Testing Room\Desktop\Joanna\morph21","no","mono","no","18","no","white","no","yes","1080","legacy","48","48","C:/Users/ERP Testing Room/Desktop/Joanna/morph21/subject-103.csv","xpyriment","Jazzy James","3.1.4","0","z","NA","NA","NA","NA","space","z","834","NA","NA","NA","NA","276325","834","2","legacy","1024","2","48000","-16","BA_m21","103","odd","FILL_NW","VOGS","1386","454845","453237","450144","277720","NA","NA","NA","NA","454840","453734","NA","452728","NA","452724","454840","1394","455145","NA","NA","453845","1386","1386","454245","452724","1386","453845","455145","morph21_Oliver/Morris","38","37078","49","yes","1280","47"
"300","76","76","761.42","761.42","black","no","xpyriment","legacy","legacy","0","204","NA","uniform","63139","1000","0.0158380715564","0","undefined","0","0","49","49","49","0","49","49","49","NA","49","49","0","49","NA","49","49","0","49","NA","49","NA","49","0","0","49","49","0","49","49","50","z","09/22/17 12:38:57","The main experiment item","yes","FIN__BA__M21__7%3A10%3A17.osexp","C:\Users\ERP Testing Room\Desktop\Joanna\morph21","no","mono","no","18","no","white","no","yes","1080","legacy","49","49","C:/Users/ERP Testing Room/Desktop/Joanna/morph21/subject-103.csv","xpyriment","Jazzy James","3.1.4","0","None","NA","NA","NA","NA","space","None","993","NA","NA","NA","NA","276325","993","2","legacy","1024","2","48000","-16","BA_m21","103","odd","NW_L_COMP","BINDIG","1386","457954","456370","450144","277720","NA","NA","NA","NA","454840","456867","NA","455870","NA","455859","457947","1394","458254","NA","NA","456954","1386","1386","457345","455859","1386","456954","458254","morph21_Oliver/Morris","38","38071","50","yes","1280","22"
"400","74.5098039216","74.5098039216","760.156862745","760.156862745","black","no","xpyriment","legacy","legacy","0","204","NA","uniform","67489","1000","0.0148172294744","0","undefined","0","0","50","50","50","0","50","50","50","NA","50","50","0","50","NA","50","50","0","50","NA","50","NA","50","0","0","50","50","0","50","50","51","z","09/22/17 12:38:57","The main experiment item","yes","FIN__BA__M21__7%3A10%3A17.osexp","C:\Users\ERP Testing Room\Desktop\Joanna\morph21","no","mono","no","18","no","white","no","yes","1080","legacy","50","50","C:/Users/ERP Testing Room/Desktop/Joanna/morph21/subject-103.csv","xpyriment","Jazzy James","3.1.4","0","/","NA","NA","NA","NA","space","/","697","NA","NA","NA","NA","276325","697","2","legacy","1024","2","48000","-16","BA_m21","103","odd","NW_L_COMP","RIPENGE","1386","462554","459462","461045","277720","NA","NA","NA","NA","454840","459959","NA","458962","NA","458959","461041","1394","462954","NA","NA","460045","1386","1386","460445","458959","1386","460045","462954","morph21_Oliver/Morris","38","38768","51","yes","1280","4"
"400","73.0769230769","73.0769230769","756.365384615","756.365384615","black","no","xpyriment","legacy","legacy","0","208","NA","uniform","77749","1000","0.0128619017608","0","undefined","0","0","51","51","51","0","51","51","51","NA","51","51","0","51","NA","51","51","0","51","NA","51","NA","51","0","0","51","51","0","51","51","52","z","09/22/17 12:38:57","The main experiment item","yes","FIN__BA__M21__7%3A10%3A17.osexp","C:\Users\ERP Testing Room\Desktop\Joanna\morph21","no","mono","no","18","no","white","no","yes","1080","legacy","51","51","C:/Users/ERP Testing Room/Desktop/Joanna/morph21/subject-103.csv","xpyriment","Jazzy James","3.1.4","0","/","NA","NA","NA","NA","space","/","563","NA","NA","NA","NA","276325","563","2","legacy","1024","2","48000","-16","BA_m21","103","odd","FILL_NW","HEND","1386","465779","464179","461045","277720","NA","NA","NA","NA","454840","464676","NA","463679","NA","463668","465772","1394","466179","NA","NA","464779","1386","1386","465171","463668","1386","464779","466179","morph21_Oliver/Morris","38","39331","52","yes","1280","28"
"250","73.5849056604","73.5849056604","750.735849057","750.735849057","black","no","xpyriment","legacy","legacy","0","202","NA","uniform","77244","1000","0.0129459893325","1","undefined","1","0","52","52","52","0","52","52","52","NA","52","52","0","52","NA","52","52","0","52","NA","52","NA","52","0","0","52","52","0","52","52","53","/","09/22/17 12:38:57","The main experiment item","yes","FIN__BA__M21__7%3A10%3A17.osexp","C:\Users\ERP Testing Room\Desktop\Joanna\morph21","no","mono","no","18","no","white","no","yes","1080","legacy","52","52","C:/Users/ERP Testing Room/Desktop/Joanna/morph21/subject-103.csv","xpyriment","Jazzy James","3.1.4","0","/","NA","NA","NA","NA","space","/","458","NA","NA","NA","NA","276325","458","2","legacy","1024","2","48000","-16","BA_m21","103","odd","CW_L","PUSHER","1386","468997","467379","461045","277720","NA","NA","NA","NA","468989","467876","NA","466879","NA","466869","468989","1394","469247","NA","NA","467996","1386","1386","468387","466869","1386","467996","469247","morph21_Oliver/Morris","39","39789","53","yes","1280","13"
"200","72.2222222222","72.2222222222","746","746","black","no","xpyriment","legacy","legacy","0","203","NA","uniform","73778","1000","0.0135541760416","0","undefined","0","0","53","53","53","0","53","53","53","NA","53","53","0","53","NA","53","53","0","53","NA","53","NA","53","0","0","53","53","0","53","53","54","z","09/22/17 12:38:57","The main experiment item","yes","FIN__BA__M21__7%3A10%3A17.osexp","C:\Users\ERP Testing Room\Desktop\Joanna\morph21","no","mono","no","18","no","white","no","yes","1080","legacy","53","53","C:/Users/ERP Testing Room/Desktop/Joanna/morph21/subject-103.csv","xpyriment","Jazzy James","3.1.4","0","/","NA","NA","NA","NA","space","/","495","NA","NA","NA","NA","276325","495","2","legacy","1024","2","48000","-16","BA_m21","103","odd","NW_S_COMP","ADOPTISH","1386","473580","470488","472072","277720","NA","NA","NA","NA","468989","470986","NA","469989","NA","469979","472066","1394","473781","NA","NA","471072","1386","1386","471464","469979","1386","471072","473781","morph21_Oliver/Morris","39","40284","54","yes","1280","19"
"250","72.7272727273","72.7272727273","742.2","742.2","black","no","xpyriment","legacy","legacy","0","201","NA","uniform","70743","1000","0.014135674201","1","undefined","1","0","54","54","54","0","54","54","54","NA","54","54","0","54","NA","54","54","0","54","NA","54","NA","54","0","0","54","54","0","54","54","55","/","09/22/17 12:38:57","The main experiment item","yes","FIN__BA__M21__7%3A10%3A17.osexp","C:\Users\ERP Testing Room\Desktop\Joanna\morph21","no","mono","no","18","no","white","no","yes","1080","legacy","54","54","C:/Users/ERP Testing Room/Desktop/Joanna/morph21/subject-103.csv","xpyriment","Jazzy James","3.1.4","0","/","NA","NA","NA","NA","space","/","537","NA","NA","NA","NA","276325","537","2","legacy","1024","2","48000","-16","BA_m21","103","odd","CW_S","TUTORING","1386","476630","475039","472072","277720","NA","NA","NA","NA","476623","475536","NA","474539","NA","474529","476623","1394","476880","NA","NA","475630","1386","1386","476022","474528","1386","475630","476880","morph21_Oliver/Morris","40","40821","55","yes","1280","27"
"400","73.2142857143","73.2142857143","739.642857143","739.642857143","black","no","xpyriment","legacy","legacy","0","201","NA","uniform","73770","1000","0.0135556459265","1","undefined","1","0","55","55","55","0","55","55","55","NA","55","55","0","55","NA","55","55","0","55","NA","55","NA","55","0","0","55","55","0","55","55","56","/","09/22/17 12:38:57","The main experiment item","yes","FIN__BA__M21__7%3A10%3A17.osexp","C:\Users\ERP Testing Room\Desktop\Joanna\morph21","no","mono","no","18","no","white","no","yes","1080","legacy","55","55","C:/Users/ERP Testing Room/Desktop/Joanna/morph21/subject-103.csv","xpyriment","Jazzy James","3.1.4","0","/","NA","NA","NA","NA","space","/","599","NA","NA","NA","NA","276325","599","2","legacy","1024","2","48000","-16","BA_m21","103","odd","CW_S","ALLOWANCE","1386","479639","478056","472072","277720","NA","NA","NA","NA","479633","478553","NA","477556","NA","477545","479633","1394","480039","NA","NA","478639","1386","1386","479031","477545","1386","478639","480039","morph21_Oliver/Morris","41","41420","56","yes","1280","5"
"300","73.6842105263","73.6842105263","738.701754386","738.701754386","black","no","xpyriment","legacy","legacy","0","208","NA","uniform","65615","1000","0.0152404175874","1","undefined","1","0","56","56","56","0","56","56","56","NA","56","56","0","56","NA","56","56","0","56","NA","56","NA","56","0","0","56","56","0","56","56","57","z","09/22/17 12:38:57","The main experiment item","yes","FIN__BA__M21__7%3A10%3A17.osexp","C:\Users\ERP Testing Room\Desktop\Joanna\morph21","no","mono","no","18","no","white","no","yes","1080","legacy","56","56","C:/Users/ERP Testing Room/Desktop/Joanna/morph21/subject-103.csv","xpyriment","Jazzy James","3.1.4","0","z","NA","NA","NA","NA","space","z","686","NA","NA","NA","NA","276325","686","2","legacy","1024","2","48000","-16","BA_m21","103","odd","FILL_NW","VOOFS","1386","484381","481281","482872","277720","NA","NA","NA","NA","482863","481778","NA","480781","NA","480777","482863","1394","484681","NA","NA","481872","1386","1386","482264","480777","1386","481872","484681","morph21_Oliver/Morris","42","42106","57","yes","1280","48"
"250","74.1379310345","74.1379310345","734.137931034","734.137931034","black","no","xpyriment","legacy","legacy","0","207","NA","uniform","78913","1000","0.0126721832905","1","undefined","1","0","57","57","57","0","57","57","57","NA","57","57","0","57","NA","57","57","0","57","NA","57","NA","57","0","0","57","57","0","57","57","58","/","09/22/17 12:38:57","The main experiment item","yes","FIN__BA__M21__7%3A10%3A17.osexp","C:\Users\ERP Testing Room\Desktop\Joanna\morph21","no","mono","no","18","no","white","no","yes","1080","legacy","57","57","C:/Users/ERP Testing Room/Desktop/Joanna/morph21/subject-103.csv","xpyriment","Jazzy James","3.1.4","0","/","NA","NA","NA","NA","space","/","474","NA","NA","NA","NA","276325","474","2","legacy","1024","2","48000","-16","BA_m21","103","odd","FILL_W","SUIT","1386","487565","485948","482872","277720","NA","NA","NA","NA","487558","486445","NA","485448","NA","485440","487558","1394","487815","NA","NA","486565","1386","1386","486957","485440","1386","486565","487815","morph21_Oliver/Morris","43","42580","58","yes","1280","49"
"300","74.5762711864","74.5762711864","733.898305085","733.898305085","black","no","xpyriment","legacy","legacy","0","204","NA","uniform","71084","1000","0.0140678633729","1","undefined","1","0","58","58","58","0","58","58","58","NA","58","58","0","58","NA","58","58","0","58","NA","58","NA","58","0","0","58","58","0","58","58","59","z","09/22/17 12:38:57","The main experiment item","yes","FIN__BA__M21__7%3A10%3A17.osexp","C:\Users\ERP Testing Room\Desktop\Joanna\morph21","no","mono","no","18","no","white","no","yes","1080","legacy","58","58","C:/Users/ERP Testing Room/Desktop/Joanna/morph21/subject-103.csv","xpyriment","Jazzy James","3.1.4","0","z","NA","NA","NA","NA","space","z","720","NA","NA","NA","NA","276325","720","2","legacy","1024","2","48000","-16","BA_m21","103","odd","NW_L_COMP","KINGILM","1386","490607","489024","482872","277720","NA","NA","NA","NA","490604","489521","NA","488524","NA","488514","490604","1394","490907","NA","NA","489615","1386","1386","490007","488513","1386","489615","490907","morph21_Oliver/Morris","44","43300","59","yes","1280","19"
"350","75","75","728.933333333","728.933333333","black","no","xpyriment","legacy","legacy","0","207","NA","uniform","73888","1000","0.0135339974015","1","undefined","1","0","59","59","59","0","59","59","59","NA","59","59","0","59","NA","59","59","0","59","NA","59","NA","59","0","0","59","59","0","59","59","60","/","09/22/17 12:38:57","The main experiment item","yes","FIN__BA__M21__7%3A10%3A17.osexp","C:\Users\ERP Testing Room\Desktop\Joanna\morph21","no","mono","no","18","no","white","no","yes","1080","legacy","59","59","C:/Users/ERP Testing Room/Desktop/Joanna/morph21/subject-103.csv","xpyriment","Jazzy James","3.1.4","0","/","NA","NA","NA","NA","space","/","436","NA","NA","NA","NA","276325","436","2","legacy","1024","2","48000","-16","BA_m21","103","odd","FILL_W","GLOOM","1386","495174","492057","493666","277720","NA","NA","NA","NA","493656","492554","NA","491557","NA","491553","493656","1394","495524","NA","NA","492666","1386","1386","493057","491553","1386","492666","495524","morph21_Oliver/Morris","45","43736","60","yes","1280","14"
"300","75.4098360656","75.4098360656","730.868852459","730.868852459","black","no","xpyriment","legacy","legacy","0","204","NA","uniform","63338","1000","0.015788310335","1","undefined","1","0","60","60","60","0","60","60","60","NA","60","60","0","60","NA","60","60","0","60","NA","60","NA","60","0","0","60","60","0","60","60","61","z","09/22/17 12:38:57","The main experiment item","yes","FIN__BA__M21__7%3A10%3A17.osexp","C:\Users\ERP Testing Room\Desktop\Joanna\morph21","no","mono","no","18","no","white","no","yes","1080","legacy","60","60","C:/Users/ERP Testing Room/Desktop/Joanna/morph21/subject-103.csv","xpyriment","Jazzy James","3.1.4","0","z","NA","NA","NA","NA","space","z","847","NA","NA","NA","NA","276325","847","2","legacy","1024","2","48000","-16","BA_m21","103","odd","NW_L_COMP","FELLOWOES","1386","498399","496782","493666","277720","NA","NA","NA","NA","498391","497280","NA","496282","NA","496276","498391","1394","498699","NA","NA","497399","1386","1386","497791","496276","1386","497399","498699","morph21_Oliver/Morris","46","44583","61","yes","1280","17"
"350","75.8064516129","75.8064516129","733.967741935","733.967741935","black","no","xpyriment","legacy","legacy","0","203","NA","uniform","59575","1000","0.0167855644146","1","undefined","1","0","61","61","61","0","61","61","61","NA","61","61","0","61","NA","61","61","0","61","NA","61","NA","61","0","0","61","61","0","61","61","62","z","09/22/17 12:38:57","The main experiment item","yes","FIN__BA__M21__7%3A10%3A17.osexp","C:\Users\ERP Testing Room\Desktop\Joanna\morph21","no","mono","no","18","no","white","no","yes","1080","legacy","61","61","C:/Users/ERP Testing Room/Desktop/Joanna/morph21/subject-103.csv","xpyriment","Jazzy James","3.1.4","0","z","NA","NA","NA","NA","space","z","923","NA","NA","NA","NA","276325","923","2","legacy","1024","2","48000","-16","BA_m21","103","odd","NW_S_COMP","EJECTENGE","1386","501499","499916","493666","277720","NA","NA","NA","NA","501495","500413","NA","499416","NA","499412","501495","1394","501849","NA","NA","500499","1386","1386","500899","499412","1386","500499","501849","morph21_Oliver/Morris","47","45506","62","yes","1280","20"
"200","74.6031746032","74.6031746032","737.523809524","737.523809524","black","no","xpyriment","legacy","legacy","0","208","NA","uniform","63253","1000","0.0158095268209","0","undefined","0","0","62","62","62","0","62","62","62","NA","62","62","0","62","NA","62","62","0","62","NA","62","NA","62","0","0","62","62","0","62","62","63","z","09/22/17 12:38:57","The main experiment item","yes","FIN__BA__M21__7%3A10%3A17.osexp","C:\Users\ERP Testing Room\Desktop\Joanna\morph21","no","mono","no","18","no","white","no","yes","1080","legacy","62","62","C:/Users/ERP Testing Room/Desktop/Joanna/morph21/subject-103.csv","xpyriment","Jazzy James","3.1.4","0","/","NA","NA","NA","NA","space","/","958","NA","NA","NA","NA","276325","958","2","legacy","1024","2","48000","-16","BA_m21","103","odd","FILL_NW","BLAYS","1386","506125","503033","504617","277720","NA","NA","NA","NA","501495","503530","NA","502533","NA","502524","504614","1394","506326","NA","NA","503625","1386","1386","504017","502524","1386","503625","506326","morph21_Oliver/Morris","47","46464","63","yes","1280","8"
"200","75","75","734.890625","734.890625","black","no","xpyriment","legacy","legacy","0","207","NA","uniform","72876","1000","0.0137219386355","1","undefined","1","0","63","63","63","0","63","63","63","NA","63","63","0","63","NA","63","63","0","63","NA","63","NA","63","0","0","63","63","0","63","63","64","/","09/22/17 12:38:57","The main experiment item","yes","FIN__BA__M21__7%3A10%3A17.osexp","C:\Users\ERP Testing Room\Desktop\Joanna\morph21","no","mono","no","18","no","white","no","yes","1080","legacy","63","63","C:/Users/ERP Testing Room/Desktop/Joanna/morph21/subject-103.csv","xpyriment","Jazzy James","3.1.4","0","/","NA","NA","NA","NA","space","/","569","NA","NA","NA","NA","276325","569","2","legacy","1024","2","48000","-16","BA_m21","103","odd","FILL_W","TEST","1386","509126","507542","504617","277720","NA","NA","NA","NA","509117","508039","NA","507042","NA","507036","509117","1394","509326","NA","NA","508126","1386","1386","508517","507036","1386","508126","509326","morph21_Oliver/Morris","48","47033","64","yes","1280","47"
"250","75.3846153846","75.3846153846","731.615384615","731.615384615","black","no","xpyriment","legacy","legacy","0","201","NA","uniform","71129","1000","0.014058963292","1","undefined","1","0","64","64","64","0","64","64","64","NA","64","64","0","64","NA","64","64","0","64","NA","64","NA","64","0","0","64","64","0","64","64","65","/","09/22/17 12:38:57","The main experiment item","yes","FIN__BA__M21__7%3A10%3A17.osexp","C:\Users\ERP Testing Room\Desktop\Joanna\morph21","no","mono","no","18","no","white","no","yes","1080","legacy","64","64","C:/Users/ERP Testing Room/Desktop/Joanna/morph21/subject-103.csv","xpyriment","Jazzy James","3.1.4","0","/","NA","NA","NA","NA","space","/","522","NA","NA","NA","NA","276325","522","2","legacy","1024","2","48000","-16","BA_m21","103","odd","CW_S","PEAKING","1386","512092","510492","504617","277720","NA","NA","NA","NA","512089","510989","NA","509992","NA","509986","512089","1394","512342","NA","NA","511092","1386","1386","511492","509986","1386","511092","512342","morph21_Oliver/Morris","49","47555","65","yes","1280","28"
"350","75.7575757576","75.7575757576","731.287878788","731.287878788","black","no","xpyriment","legacy","legacy","0","202","NA","uniform","70553","1000","0.0141737417261","1","undefined","1","0","65","65","65","0","65","65","65","NA","65","65","0","65","NA","65","65","0","65","NA","65","NA","65","0","0","65","65","0","65","65","66","/","09/22/17 12:38:57","The main experiment item","yes","FIN__BA__M21__7%3A10%3A17.osexp","C:\Users\ERP Testing Room\Desktop\Joanna\morph21","no","mono","no","18","no","white","no","yes","1080","legacy","65","65","C:/Users/ERP Testing Room/Desktop/Joanna/morph21/subject-103.csv","xpyriment","Jazzy James","3.1.4","0","/","NA","NA","NA","NA","space","/","710","NA","NA","NA","NA","276325","710","2","legacy","1024","2","48000","-16","BA_m21","103","odd","CW_L","BOMBER","1386","516684","513576","515176","277720","NA","NA","NA","NA","515170","514073","NA","513076","NA","513067","515170","1394","517035","NA","NA","514176","1386","1386","514568","513067","1386","514176","517035","morph21_Oliver/Morris","50","48265","66","yes","1280","7"
"200","76.1194029851","76.1194029851","733.432835821","733.432835821","black","no","xpyriment","legacy","legacy","0","206","NA","uniform","59449","1000","0.0168211408098","1","undefined","1","0","66","66","66","0","66","66","66","NA","66","66","0","66","NA","66","66","0","66","NA","66","NA","66","0","0","66","66","0","66","66","67","z","09/22/17 12:38:57","The main experiment item","yes","FIN__BA__M21__7%3A10%3A17.osexp","C:\Users\ERP Testing Room\Desktop\Joanna\morph21","no","mono","no","18","no","white","no","yes","1080","legacy","66","66","C:/Users/ERP Testing Room/Desktop/Joanna/morph21/subject-103.csv","xpyriment","Jazzy James","3.1.4","0","z","NA","NA","NA","NA","space","z","875","NA","NA","NA","NA","276325","875","2","legacy","1024","2","48000","-16","BA_m21","103","odd","NW_L_SIMP","GROWIST","1386","519834","518209","515176","277720","NA","NA","NA","NA","519832","518706","NA","517709","NA","517700","519832","1394","520034","NA","NA","518843","1386","1386","519234","517700","1386","518843","520034","morph21_Oliver/Morris","51","49140","67","yes","1280","20"
"300","75","75","735.867647059","735.867647059","black","no","xpyriment","legacy","legacy","0","204","NA","uniform","65517","1000","0.0152632141276","0","undefined","0","0","67","67","67","0","67","67","67","NA","67","67","0","67","NA","67","67","0","67","NA","67","NA","67","0","0","67","67","0","67","67","68","z","09/22/17 12:38:57","The main experiment item","yes","FIN__BA__M21__7%3A10%3A17.osexp","C:\Users\ERP Testing Room\Desktop\Joanna\morph21","no","mono","no","18","no","white","no","yes","1080","legacy","67","67","C:/Users/ERP Testing Room/Desktop/Joanna/morph21/subject-103.csv","xpyriment","Jazzy James","3.1.4","0","/","NA","NA","NA","NA","space","/","899","NA","NA","NA","NA","276325","899","2","legacy","1024","2","48000","-16","BA_m21","103","odd","NW_L_COMP","ADDMANT","1386","522844","521219","515176","277720","NA","NA","NA","NA","519832","521716","NA","520718","NA","520712","522836","1394","523144","NA","NA","521844","1386","1386","522235","520712","1386","521844","523144","morph21_Oliver/Morris","51","50039","68","yes","1280","13"
"350","75.3623188406","75.3623188406","732.463768116","732.463768116","black","no","xpyriment","legacy","legacy","0","202","NA","uniform","68688","1000","0.014558583741","1","undefined","1","0","68","68","68","0","68","68","68","NA","68","68","0","68","NA","68","68","0","68","NA","68","NA","68","0","0","68","68","0","68","68","69","/","09/22/17 12:38:57","The main experiment item","yes","FIN__BA__M21__7%3A10%3A17.osexp","C:\Users\ERP Testing Room\Desktop\Joanna\morph21","no","mono","no","18","no","white","no","yes","1080","legacy","68","68","C:/Users/ERP Testing Room/Desktop/Joanna/morph21/subject-103.csv","xpyriment","Jazzy James","3.1.4","0","/","NA","NA","NA","NA","space","/","501","NA","NA","NA","NA","276325","501","2","legacy","1024","2","48000","-16","BA_m21","103","odd","CW_L","FEEDER","1386","527502","524386","525994","277720","NA","NA","NA","NA","525986","524883","NA","523886","NA","523875","525986","1394","527853","NA","NA","524994","1386","1386","525386","523875","1386","524994","527853","morph21_Oliver/Morris","52","50540","69","yes","1280","14"
"400","75.7142857143","75.7142857143","735.128571429","735.128571429","black","no","xpyriment","legacy","legacy","0","204","NA","uniform","58446","1000","0.0171098107655","1","undefined","1","0","69","69","69","0","69","69","69","NA","69","69","0","69","NA","69","69","0","69","NA","69","NA","69","0","0","69","69","0","69","69","70","z","09/22/17 12:38:57","The main experiment item","yes","FIN__BA__M21__7%3A10%3A17.osexp","C:\Users\ERP Testing Room\Desktop\Joanna\morph21","no","mono","no","18","no","white","no","yes","1080","legacy","69","69","C:/Users/ERP Testing Room/Desktop/Joanna/morph21/subject-103.csv","xpyriment","Jazzy James","3.1.4","0","z","NA","NA","NA","NA","space","z","919","NA","NA","NA","NA","276325","919","2","legacy","1024","2","48000","-16","BA_m21","103","odd","NW_L_COMP","FLITENGE","1386","530703","529119","525994","277720","NA","NA","NA","NA","530696","529616","NA","528619","NA","528610","530696","1394","531103","NA","NA","529703","1386","1386","530094","528610","1386","529703","531103","morph21_Oliver/Morris","53","51459","70","yes","1280","3"
"350","76.0563380282","76.0563380282","734.154929577","734.154929577","black","no","xpyriment","legacy","legacy","0","207","NA","uniform","74225","1000","0.01347254968","1","undefined","1","0","70","70","70","0","70","70","70","NA","70","70","0","70","NA","70","70","0","70","NA","70","NA","70","0","0","70","70","0","70","70","71","/","09/22/17 12:38:57","The main experiment item","yes","FIN__BA__M21__7%3A10%3A17.osexp","C:\Users\ERP Testing Room\Desktop\Joanna\morph21","no","mono","no","18","no","white","no","yes","1080","legacy","70","70","C:/Users/ERP Testing Room/Desktop/Joanna/morph21/subject-103.csv","xpyriment","Jazzy James","3.1.4","0","/","NA","NA","NA","NA","space","/","666","NA","NA","NA","NA","276325","666","2","legacy","1024","2","48000","-16","BA_m21","103","odd","FILL_W","FAINT","1386","533844","532261","525994","277720","NA","NA","NA","NA","533836","532758","NA","531761","NA","531752","533836","1394","534194","NA","NA","532844","1386","1386","533236","531752","1386","532844","534194","morph21_Oliver/Morris","54","52125","71","yes","1280","31"
"350","76.3888888889","76.3888888889","736.027777778","736.027777778","black","no","xpyriment","legacy","legacy","0","206","NA","uniform","62536","1000","0.0159907893054","1","undefined","1","0","71","71","71","0","71","71","71","NA","71","71","0","71","NA","71","71","0","71","NA","71","NA","71","0","0","71","71","0","71","71","72","z","09/22/17 12:38:57","The main experiment item","yes","FIN__BA__M21__7%3A10%3A17.osexp","C:\Users\ERP Testing Room\Desktop\Joanna\morph21","no","mono","no","18","no","white","no","yes","1080","legacy","71","71","C:/Users/ERP Testing Room/Desktop/Joanna/morph21/subject-103.csv","xpyriment","Jazzy James","3.1.4","0","z","NA","NA","NA","NA","space","z","869","NA","NA","NA","NA","276325","869","2","legacy","1024","2","48000","-16","BA_m21","103","odd","NW_L_SIMP","PICKENCE","1386","538470","535378","536961","277720","NA","NA","NA","NA","536955","535875","NA","534878","NA","534872","536955","1394","538820","NA","NA","535961","1386","1386","536353","534872","1386","535961","538820","morph21_Oliver/Morris","55","52994","72","yes","1280","5"
"200","76.7123287671","76.7123287671","733.328767123","733.328767123","black","no","xpyriment","legacy","legacy","0","202","NA","uniform","76196","1000","0.0131240485065","1","undefined","1","0","72","72","72","0","72","72","72","NA","72","72","0","72","NA","72","72","0","72","NA","72","NA","72","0","0","72","72","0","72","72","73","/","09/22/17 12:38:57","The main experiment item","yes","FIN__BA__M21__7%3A10%3A17.osexp","C:\Users\ERP Testing Room\Desktop\Joanna\morph21","no","mono","no","18","no","white","no","yes","1080","legacy","72","72","C:/Users/ERP Testing Room/Desktop/Joanna/morph21/subject-103.csv","xpyriment","Jazzy James","3.1.4","0","/","NA","NA","NA","NA","space","/","539","NA","NA","NA","NA","276325","539","2","legacy","1024","2","48000","-16","BA_m21","103","odd","CW_L","SHAMEFUL","1386","541604","540012","536961","277720","NA","NA","NA","NA","541598","540510","NA","539512","NA","539501","541598","1394","541804","NA","NA","540604","1386","1386","540996","539501","1386","540604","541804","morph21_Oliver/Morris","56","53533","73","yes","1280","19"
"400","77.027027027","77.027027027","732.621621622","732.621621622","black","no","xpyriment","legacy","legacy","0","208","NA","uniform","74704","1000","0.0133861640608","1","undefined","1","0","73","73","73","0","73","73","73","NA","73","73","0","73","NA","73","73","0","73","NA","73","NA","73","0","0","73","73","0","73","73","74","z","09/22/17 12:38:57","The main experiment item","yes","FIN__BA__M21__7%3A10%3A17.osexp","C:\Users\ERP Testing Room\Desktop\Joanna\morph21","no","mono","no","18","no","white","no","yes","1080","legacy","73","73","C:/Users/ERP Testing Room/Desktop/Joanna/morph21/subject-103.csv","xpyriment","Jazzy James","3.1.4","0","z","NA","NA","NA","NA","space","z","681","NA","NA","NA","NA","276325","681","2","legacy","1024","2","48000","-16","BA_m21","103","odd","FILL_NW","SOISE","1386","544654","543071","536961","277720","NA","NA","NA","NA","544649","543568","NA","542571","NA","542564","544649","1394","545054","NA","NA","543654","1386","1386","544046","542564","1386","543654","545054","morph21_Oliver/Morris","57","54214","74","yes","1280","43"
"350","77.3333333333","77.3333333333","731.36","731.36","black","no","xpyriment","legacy","legacy","0","202","NA","uniform","71492","1000","0.0139875790298","undefined","undefined","1","0","74","74","74","0","74","74","74","NA","74","74","0","74","NA","74","74","0","74","NA","74","NA","74","0","0","74","74","0","74","74","75","/","09/22/17 12:38:57","The main experiment item","yes","FIN__BA__M21__7%3A10%3A17.osexp","C:\Users\ERP Testing Room\Desktop\Joanna\morph21","no","mono","no","18","no","white","no","yes","1080","legacy","74","74","C:/Users/ERP Testing Room/Desktop/Joanna/morph21/subject-103.csv","xpyriment","Jazzy James","3.1.4","0","space","space","NA","NA","NA","space","/","90820","90820","NA","NA","NA","276325","638","2","legacy","1024","2","48000","-16","BA_m21","103","odd","CW_L","GUARDING","1386","549396","546304","547888","277720","549754","NA","NA","NA","547881","546801","NA","545804","NA","545800","547881","1394","640575","NA","NA","546888","1386","1386","547279","545800","1386","546888","549746","morph21_Oliver/Morris","58","54852","75","yes","1280","26"
"250","77.6315789474","77.6315789474","732.907894737","732.907894737","black","no","xpyriment","legacy","legacy","0","203","NA","uniform","57011","1000","0.0175404746452","1","undefined","1","0","75","75","75","0","75","75","75","NA","75","75","0","75","NA","75","75","0","75","NA","75","NA","75","0","0","75","75","0","75","75","76","z","09/22/17 12:38:57","The main experiment item","yes","FIN__BA__M21__7%3A10%3A17.osexp","C:\Users\ERP Testing Room\Desktop\Joanna\morph21","no","mono","no","18","no","white","no","yes","1080","legacy","75","75","C:/Users/ERP Testing Room/Desktop/Joanna/morph21/subject-103.csv","xpyriment","Jazzy James","3.1.4","0","z","space","NA","NA","NA","space","z","849","90820","NA","NA","NA","276325","849","2","legacy","1024","2","48000","-16","BA_m21","103","odd","NW_S_COMP","TREASONIME","1386","643398","641805","547888","277720","549754","NA","NA","NA","643391","642302","NA","641305","NA","641300","643391","1394","643648","NA","NA","642397","1386","1386","642789","641300","1386","642397","643648","morph21_Oliver/Morris","59","55701","76","yes","1280","14"
"400","77.9220779221","77.9220779221","728.298701299","728.298701299","black","no","xpyriment","legacy","legacy","0","202","NA","uniform","77006","1000","0.0129860010908","1","undefined","1","0","76","76","76","0","76","76","76","NA","76","76","0","76","NA","76","76","0","76","NA","76","NA","76","0","0","76","76","0","76","76","77","/","09/22/17 12:38:57","The main experiment item","yes","FIN__BA__M21__7%3A10%3A17.osexp","C:\Users\ERP Testing Room\Desktop\Joanna\morph21","no","mono","no","18","no","white","no","yes","1080","legacy","76","76","C:/Users/ERP Testing Room/Desktop/Joanna/morph21/subject-103.csv","xpyriment","Jazzy James","3.1.4","0","/","space","NA","NA","NA","space","/","378","90820","NA","NA","NA","276325","378","2","legacy","1024","2","48000","-16","BA_m21","103","odd","CW_L","LOCKER","1386","646565","644982","547888","277720","549754","NA","NA","NA","646561","645479","NA","644481","NA","644472","646561","1394","646965","NA","NA","645573","1386","1386","645965","644472","1386","645573","646965","morph21_Oliver/Morris","60","56079","77","yes","1280","8"
"200","78.2051282051","78.2051282051","727.961538462","727.961538462","black","no","xpyriment","legacy","legacy","0","208","NA","uniform","69568","1000","0.014374425023","1","undefined","1","0","77","77","77","0","77","77","77","NA","77","77","0","77","NA","77","77","0","77","NA","77","NA","77","0","0","77","77","0","77","77","78","z","09/22/17 12:38:57","The main experiment item","yes","FIN__BA__M21__7%3A10%3A17.osexp","C:\Users\ERP Testing Room\Desktop\Joanna\morph21","no","mono","no","18","no","white","no","yes","1080","legacy","77","77","C:/Users/ERP Testing Room/Desktop/Joanna/morph21/subject-103.csv","xpyriment","Jazzy James","3.1.4","0","z","space","NA","NA","NA","space","z","702","90820","NA","NA","NA","276325","702","2","legacy","1024","2","48000","-16","BA_m21","103","odd","FILL_NW","TUEER","1386","651365","648273","649857","277720","549754","NA","NA","NA","649849","648770","NA","647773","NA","647766","649849","1394","651565","NA","NA","648857","1386","1386","649248","647766","1386","648857","651565","morph21_Oliver/Morris","61","56781","78","yes","1280","44"
"200","78.4810126582","78.4810126582","727.544303797","727.544303797","black","no","xpyriment","legacy","legacy","0","208","NA","uniform","72359","1000","0.0138199809284","1","undefined","1","0","78","78","78","0","78","78","78","NA","78","78","0","78","NA","78","78","0","78","NA","78","NA","78","0","0","78","78","0","78","78","79","z","09/22/17 12:38:57","The main experiment item","yes","FIN__BA__M21__7%3A10%3A17.osexp","C:\Users\ERP Testing Room\Desktop\Joanna\morph21","no","mono","no","18","no","white","no","yes","1080","legacy","78","78","C:/Users/ERP Testing Room/Desktop/Joanna/morph21/subject-103.csv","xpyriment","Jazzy James","3.1.4","0","z","space","NA","NA","NA","space","z","695","90820","NA","NA","NA","276325","695","2","legacy","1024","2","48000","-16","BA_m21","103","odd","FILL_NW","PUCTS","1386","654407","652823","649857","277720","549754","NA","NA","NA","654404","653321","NA","652323","NA","652317","654404","1394","654607","NA","NA","653415","1386","1386","653807","652317","1386","653415","654607","morph21_Oliver/Morris","62","57476","79","yes","1280","40"
"400","77.5","77.5","724.825","724.825","black","no","xpyriment","legacy","legacy","0","204","NA","uniform","68861","1000","0.0145220081033","0","undefined","0","0","79","79","79","0","79","79","79","NA","79","79","0","79","NA","79","79","0","79","NA","79","NA","79","0","0","79","79","0","79","79","80","z","09/22/17 12:38:57","The main experiment item","yes","FIN__BA__M21__7%3A10%3A17.osexp","C:\Users\ERP Testing Room\Desktop\Joanna\morph21","no","mono","no","18","no","white","no","yes","1080","legacy","79","79","C:/Users/ERP Testing Room/Desktop/Joanna/morph21/subject-103.csv","xpyriment","Jazzy James","3.1.4","0","/","space","NA","NA","NA","space","/","510","90820","NA","NA","NA","276325","510","2","legacy","1024","2","48000","-16","BA_m21","103","odd","NW_L_COMP","BOIL","1386","657432","655824","649857","277720","549754","NA","NA","NA","654404","656321","NA","655324","NA","655319","657429","1394","657832","NA","NA","656432","1386","1386","656832","655319","1386","656432","657832","morph21_Oliver/Morris","62","57986","80","yes","1280","18"
"300","77.7777777778","77.7777777778","724.827160494","724.827160494","black","no","xpyriment","legacy","legacy","0","206","NA","uniform","68601","1000","0.0145770469818","1","undefined","1","0","80","80","80","0","80","80","80","NA","80","80","0","80","NA","80","80","0","80","NA","80","NA","80","0","0","80","80","0","80","80","81","z","09/22/17 12:38:57","The main experiment item","yes","FIN__BA__M21__7%3A10%3A17.osexp","C:\Users\ERP Testing Room\Desktop\Joanna\morph21","no","mono","no","18","no","white","no","yes","1080","legacy","80","80","C:/Users/ERP Testing Room/Desktop/Joanna/morph21/subject-103.csv","xpyriment","Jazzy James","3.1.4","0","z","space","NA","NA","NA","space","z","725","90820","NA","NA","NA","276325","725","2","legacy","1024","2","48000","-16","BA_m21","103","odd","NW_L_SIMP","ELBOWISM","1386","662158","659065","660649","277720","549754","NA","NA","NA","660645","659563","NA","658565","NA","658554","660645","1394","662458","NA","NA","659649","1386","1386","660049","658554","1386","659649","662458","morph21_Oliver/Morris","63","58711","81","yes","1280","10"
"400","78.0487804878","78.0487804878","723.463414634","723.463414634","black","no","xpyriment","legacy","legacy","0","201","NA","uniform","76183","1000","0.013126288017","1","undefined","1","0","81","81","81","0","81","81","81","NA","81","81","0","81","NA","81","81","0","81","NA","81","NA","81","0","0","81","81","0","81","81","82","/","09/22/17 12:38:57","The main experiment item","yes","FIN__BA__M21__7%3A10%3A17.osexp","C:\Users\ERP Testing Room\Desktop\Joanna\morph21","no","mono","no","18","no","white","no","yes","1080","legacy","81","81","C:/Users/ERP Testing Room/Desktop/Joanna/morph21/subject-103.csv","xpyriment","Jazzy James","3.1.4","0","/","space","NA","NA","NA","space","/","613","90820","NA","NA","NA","276325","613","2","legacy","1024","2","48000","-16","BA_m21","103","odd","CW_S","AVOIDABLE","1386","665450","663867","660649","277720","549754","NA","NA","NA","665446","664364","NA","663367","NA","663361","665446","1394","665850","NA","NA","664450","1386","1386","664850","663360","1386","664450","665850","morph21_Oliver/Morris","64","59324","82","yes","1280","2"
"350","78.313253012","78.313253012","722.012048193","722.012048193","black","no","xpyriment","legacy","legacy","0","202","NA","uniform","67464","1000","0.0148227202656","1","undefined","1","0","82","82","82","0","82","82","82","NA","82","82","0","82","NA","82","82","0","82","NA","82","NA","82","0","0","82","82","0","82","82","83","/","09/22/17 12:38:57","The main experiment item","yes","FIN__BA__M21__7%3A10%3A17.osexp","C:\Users\ERP Testing Room\Desktop\Joanna\morph21","no","mono","no","18","no","white","no","yes","1080","legacy","82","82","C:/Users/ERP Testing Room/Desktop/Joanna/morph21/subject-103.csv","xpyriment","Jazzy James","3.1.4","0","/","space","NA","NA","NA","space","/","603","90820","NA","NA","NA","276325","603","2","legacy","1024","2","48000","-16","BA_m21","103","odd","CW_L","JUMPING","1386","668709","667075","660649","277720","549754","NA","NA","NA","668701","667572","NA","666575","NA","666568","668701","1394","669059","NA","NA","667708","1386","1386","668100","666568","1386","667708","669059","morph21_Oliver/Morris","65","59927","83","yes","1280","30"
"300","78.5714285714","78.5714285714","724.011904762","724.011904762","black","no","xpyriment","legacy","legacy","0","206","NA","uniform","67064","1000","0.0149111296672","1","undefined","1","0","83","83","83","0","83","83","83","NA","83","83","0","83","NA","83","83","0","83","NA","83","NA","83","0","0","83","83","0","83","83","84","z","09/22/17 12:38:57","The main experiment item","yes","FIN__BA__M21__7%3A10%3A17.osexp","C:\Users\ERP Testing Room\Desktop\Joanna\morph21","no","mono","no","18","no","white","no","yes","1080","legacy","83","83","C:/Users/ERP Testing Room/Desktop/Joanna/morph21/subject-103.csv","xpyriment","Jazzy James","3.1.4","0","z","space","NA","NA","NA","space","z","890","90820","NA","NA","NA","276325","890","2","legacy","1024","2","48000","-16","BA_m21","103","odd","NW_L_SIMP","EARIST","1386","673409","670317","671900","277720","549754","NA","NA","NA","671895","670814","NA","669817","NA","669810","671895","1394","673709","NA","NA","670900","1386","1386","671292","669810","1386","670900","673709","morph21_Oliver/Morris","66","60817","84","yes","1280","12"
"400","78.8235294118","78.8235294118","722.070588235","722.070588235","black","no","xpyriment","legacy","legacy","0","201","NA","uniform","69537","1000","0.0143808332255","1","undefined","1","0","84","84","84","0","84","84","84","NA","84","84","0","84","NA","84","84","0","84","NA","84","NA","84","0","0","84","84","0","84","84","85","/","09/22/17 12:38:57","The main experiment item","yes","FIN__BA__M21__7%3A10%3A17.osexp","C:\Users\ERP Testing Room\Desktop\Joanna\morph21","no","mono","no","18","no","white","no","yes","1080","legacy","84","84","C:/Users/ERP Testing Room/Desktop/Joanna/morph21/subject-103.csv","xpyriment","Jazzy James","3.1.4","0","/","space","NA","NA","NA","space","/","559","90820","NA","NA","NA","276325","559","2","legacy","1024","2","48000","-16","BA_m21","103","odd","CW_S","WIDOWED","1386","676559","674942","671900","277720","549754","NA","NA","NA","676551","675439","NA","674442","NA","674432","676551","1394","676959","NA","NA","675559","1386","1386","675950","674432","1386","675559","676959","morph21_Oliver/Morris","67","61376","85","yes","1280","7"
"250","79.0697674419","79.0697674419","719.337209302","719.337209302","black","no","xpyriment","legacy","legacy","0","207","NA","uniform","74072","1000","0.0135003780106","1","undefined","1","0","85","85","85","0","85","85","85","NA","85","85","0","85","NA","85","85","0","85","NA","85","NA","85","0","0","85","85","0","85","85","86","/","09/22/17 12:38:57","The main experiment item","yes","FIN__BA__M21__7%3A10%3A17.osexp","C:\Users\ERP Testing Room\Desktop\Joanna\morph21","no","mono","no","18","no","white","no","yes","1080","legacy","85","85","C:/Users/ERP Testing Room/Desktop/Joanna/morph21/subject-103.csv","xpyriment","Jazzy James","3.1.4","0","/","space","NA","NA","NA","space","/","487","90820","NA","NA","NA","276325","487","2","legacy","1024","2","48000","-16","BA_m21","103","odd","FILL_W","SOFT","1386","679768","678142","671900","277720","549754","NA","NA","NA","679762","678639","NA","677642","NA","677634","679762","1394","680018","NA","NA","678768","1386","1386","679160","677634","1386","678768","680018","morph21_Oliver/Morris","68","61863","86","yes","1280","43"
"200","78.1609195402","78.1609195402","722.482758621","722.482758621","black","no","xpyriment","legacy","legacy","0","205","NA","uniform","54877","1000","0.0182225704758","0","undefined","0","0","86","86","86","0","86","86","86","NA","86","86","0","86","NA","86","86","0","86","NA","86","NA","86","0","0","86","86","0","86","86","87","z","09/22/17 12:38:57","The main experiment item","yes","FIN__BA__M21__7%3A10%3A17.osexp","C:\Users\ERP Testing Room\Desktop\Joanna\morph21","no","mono","no","18","no","white","no","yes","1080","legacy","86","86","C:/Users/ERP Testing Room/Desktop/Joanna/morph21/subject-103.csv","xpyriment","Jazzy James","3.1.4","0","None","space","NA","NA","NA","space","None","993","90820","NA","NA","NA","276325","993","2","legacy","1024","2","48000","-16","BA_m21","103","odd","NW_S_SIMP","OPPOSEMENT","1386","684335","681243","682827","277720","549754","NA","NA","NA","679762","681741","NA","680743","NA","680736","682821","1394","684535","NA","NA","681827","1386","1386","682218","680736","1386","681827","684535","morph21_Oliver/Morris","68","62856","87","yes","1280","8"
"200","78.4090909091","78.4090909091","720.693181818","720.693181818","black","no","xpyriment","legacy","legacy","0","207","NA","uniform","77425","1000","0.0129157248951","1","undefined","1","0","87","87","87","0","87","87","87","NA","87","87","0","87","NA","87","87","0","87","NA","87","NA","87","0","0","87","87","0","87","87","88","/","09/22/17 12:38:57","The main experiment item","yes","FIN__BA__M21__7%3A10%3A17.osexp","C:\Users\ERP Testing Room\Desktop\Joanna\morph21","no","mono","no","18","no","white","no","yes","1080","legacy","87","87","C:/Users/ERP Testing Room/Desktop/Joanna/morph21/subject-103.csv","xpyriment","Jazzy James","3.1.4","0","/","space","NA","NA","NA","space","/","565","90820","NA","NA","NA","276325","565","2","legacy","1024","2","48000","-16","BA_m21","103","odd","FILL_W","SAVE","1386","687394","685810","682827","277720","549754","NA","NA","NA","687387","686307","NA","685310","NA","685304","687387","1394","687594","NA","NA","686394","1386","1386","686785","685304","1386","686394","687594","morph21_Oliver/Morris","69","63421","88","yes","1280","46"
"350","78.6516853933","78.6516853933","723.528089888","723.528089888","black","no","xpyriment","legacy","legacy","0","206","NA","uniform","59712","1000","0.0167470525188","1","undefined","1","0","88","88","88","0","88","88","88","NA","88","88","0","88","NA","88","88","0","88","NA","88","NA","88","0","0","88","88","0","88","88","89","z","09/22/17 12:38:57","The main experiment item","yes","FIN__BA__M21__7%3A10%3A17.osexp","C:\Users\ERP Testing Room\Desktop\Joanna\morph21","no","mono","no","18","no","white","no","yes","1080","legacy","88","88","C:/Users/ERP Testing Room/Desktop/Joanna/morph21/subject-103.csv","xpyriment","Jazzy James","3.1.4","0","z","space","NA","NA","NA","space","z","973","90820","NA","NA","NA","276325","973","2","legacy","1024","2","48000","-16","BA_m21","103","odd","NW_L_SIMP","NUTLY","1386","690377","688794","682827","277720","549754","NA","NA","NA","690374","689291","NA","688285","NA","688279","690374","1394","690727","NA","NA","689385","1386","1386","689777","688279","1386","689385","690727","morph21_Oliver/Morris","70","64394","89","yes","1280","14"
"250","78.8888888889","78.8888888889","720.544444444","720.544444444","black","no","xpyriment","legacy","legacy","0","202","NA","uniform","72925","1000","0.0137127185465","1","undefined","1","0","89","89","89","0","89","89","89","NA","89","89","0","89","NA","89","89","0","89","NA","89","NA","89","0","0","89","89","0","89","89","90","/","09/22/17 12:38:57","The main experiment item","yes","FIN__BA__M21__7%3A10%3A17.osexp","C:\Users\ERP Testing Room\Desktop\Joanna\morph21","no","mono","no","18","no","white","no","yes","1080","legacy","89","89","C:/Users/ERP Testing Room/Desktop/Joanna/morph21/subject-103.csv","xpyriment","Jazzy James","3.1.4","0","/","space","NA","NA","NA","space","/","455","90820","NA","NA","NA","276325","455","2","legacy","1024","2","48000","-16","BA_m21","103","odd","CW_L","DREAMER","1386","695027","691911","693519","277720","549754","NA","NA","NA","693510","692408","NA","691411","NA","691404","693510","1394","695278","NA","NA","692519","1386","1386","692911","691404","1386","692519","695278","morph21_Oliver/Morris","71","64849","90","yes","1280","12"
"350","79.1208791209","79.1208791209","718.604395604","718.604395604","black","no","xpyriment","legacy","legacy","0","202","NA","uniform","78806","1000","0.0126893891328","1","undefined","1","0","90","90","90","0","90","90","90","NA","90","90","0","90","NA","90","90","0","90","NA","90","NA","90","0","0","90","90","0","90","90","91","/","09/22/17 12:38:57","The main experiment item","yes","FIN__BA__M21__7%3A10%3A17.osexp","C:\Users\ERP Testing Room\Desktop\Joanna\morph21","no","mono","no","18","no","white","no","yes","1080","legacy","90","90","C:/Users/ERP Testing Room/Desktop/Joanna/morph21/subject-103.csv","xpyriment","Jazzy James","3.1.4","0","/","space","NA","NA","NA","space","/","544","90820","NA","NA","NA","276325","544","2","legacy","1024","2","48000","-16","BA_m21","103","odd","CW_L","RENTER","1386","698103","696520","693519","277720","549754","NA","NA","NA","698097","697017","NA","696020","NA","696011","698097","1394","698453","NA","NA","697103","1386","1386","697495","696011","1386","697103","698453","morph21_Oliver/Morris","72","65393","91","yes","1280","9"
