"ITI","acc","accuracy","average_response_time","avg_rt","background","bidi","canvas_backend","clock_backend","color_backend","compensation","cond_trig","condtrigtime","coordinates","coroutines_cycles","coroutines_duration","coroutines_mean_cycle_duration","correct","correct_instructions_1","correct_new_keyboard_response_1","count_AB_m21","count_ITI","count_blank_screen","count_blink_screen","count_block1","count_break1","count_break2","count_break3_1","count_canvas","count_correct_trigger","count_def_chain","count_end_screen","count_fixation_1","count_getting_started","count_inc_counter","count_incorrect_trigger","count_instructions_1","count_logger","count_logscript","count_new_coroutines","count_new_inline_script","count_new_keyboard_response_1","count_reset_counter_prep","count_reset_counter_run","count_responsescreen","count_sequence","count_start_trigger","count_target_present","count_word_trigger","counter","cresp","datetime","description","disable_garbage_collection","experiment_file","experiment_path","font_bold","font_family","font_italic","font_size","font_underline","foreground","form_clicks","fullscreen","height","keyboard_backend","live_row","live_row_block1","logfile","mouse_backend","opensesame_codename","opensesame_version","repeat_cycle","response","response_break1","response_break2","response_break3_1","response_end_screen","response_instructions_1","response_new_keyboard_response_1","response_time","response_time_break1","response_time_break2","response_time_break3_1","response_time_end_screen","response_time_instructions_1","response_time_new_keyboard_response_1","round_decimals","sampler_backend","sound_buf_size","sound_channels","sound_freq","sound_sample_size","start","subject_nr","subject_parity","targ_type","target","time_AB_m21","time_ITI","time_blank_screen","time_blink_screen","time_block1","time_break1","time_break2","time_break3_1","time_canvas","time_correct_trigger","time_def_chain","time_end_screen","time_fixation_1","time_getting_started","time_inc_counter","time_incorrect_trigger","time_instructions_1","time_logger","time_logscript","time_new_inline_script","time_new_keyboard_response_1","time_reset_counter_prep","time_reset_counter_run","time_responsescreen","time_sequence","time_start_trigger","time_target_present","time_word_trigger","title","total_correct","total_response_time","total_responses","uniform_coordinates","width","word_trig"
"350","100","100","922","922","black","no","xpyriment","legacy","legacy","0","202","NA","uniform","57069","1000","0.0175226480226","1","undefined","1","0","0","0","0","0","0","0","0","NA","0","0","0","0","NA","0","0","0","0","NA","0","NA","0","0","0","0","0","0","0","0","1","/","03/26/19 12:39:40","The main experiment item","yes","FIN__AB__M21__7%3A10%3A17.osexp","C:\Users\ERP Testing Room\Desktop\Joanna\morph21","no","mono","no","18","no","white","no","yes","1080","legacy","0","0","C:/Users/ERP Testing Room/Desktop/Joanna/morph21/subject-169.csv","xpyriment","Kafkaesque Koffka","3.2.5","0","/","NA","NA","NA","NA","space","/","922","NA","NA","NA","NA","166099","922","2","legacy","1024","2","48000","-16","AB_m21","169","odd","CW_L","BOMBER","2016","170929","169254","NA","168131","NA","NA","NA","NA","170925","169751","NA","168751","NA","168676","170925","2032","171279","NA","NA","169929","2016","2016","170329","168676","2016","169929","171279","morph21_Oliver/Morris","1","922","1","yes","1280","7"
"250","100","100","741.5","741.5","black","no","xpyriment","legacy","legacy","0","207","NA","uniform","66848","1000","0.014959310675","1","undefined","1","0","1","1","1","0","1","1","1","NA","1","1","0","1","NA","1","1","0","1","NA","1","NA","1","0","0","1","1","0","1","1","2","/","03/26/19 12:39:40","The main experiment item","yes","FIN__AB__M21__7%3A10%3A17.osexp","C:\Users\ERP Testing Room\Desktop\Joanna\morph21","no","mono","no","18","no","white","no","yes","1080","legacy","1","1","C:/Users/ERP Testing Room/Desktop/Joanna/morph21/subject-169.csv","xpyriment","Kafkaesque Koffka","3.2.5","0","/","NA","NA","NA","NA","space","/","561","NA","NA","NA","NA","166099","561","2","legacy","1024","2","48000","-16","AB_m21","169","odd","FILL_W","SHIP","2016","174105","172388","NA","168131","NA","NA","NA","NA","174094","172885","NA","171888","NA","171880","174094","2032","174355","NA","NA","173105","2016","2016","173496","171880","2016","173105","174355","morph21_Oliver/Morris","2","1483","2","yes","1280","37"
"200","100","100","693.666666667","693.666666667","black","no","xpyriment","legacy","legacy","0","208","NA","uniform","68802","1000","0.0145344612075","1","undefined","1","0","2","2","2","0","2","2","2","NA","2","2","0","2","NA","2","2","0","2","NA","2","NA","2","0","0","2","2","0","2","2","3","z","03/26/19 12:39:40","The main experiment item","yes","FIN__AB__M21__7%3A10%3A17.osexp","C:\Users\ERP Testing Room\Desktop\Joanna\morph21","no","mono","no","18","no","white","no","yes","1080","legacy","2","2","C:/Users/ERP Testing Room/Desktop/Joanna/morph21/subject-169.csv","xpyriment","Kafkaesque Koffka","3.2.5","0","z","NA","NA","NA","NA","space","z","598","NA","NA","NA","NA","166099","598","2","legacy","1024","2","48000","-16","AB_m21","169","odd","FILL_NW","GILN","2016","178689","175481","177181","168131","NA","NA","NA","NA","177175","175978","NA","174981","NA","174976","177175","2032","178889","NA","NA","176181","2016","2016","176572","174976","2016","176181","178889","morph21_Oliver/Morris","3","2081","3","yes","1280","25"
"300","100","100","718.75","718.75","black","no","xpyriment","legacy","legacy","0","204","NA","uniform","57879","1000","0.0172774235906","1","undefined","1","0","3","3","3","0","3","3","3","NA","3","3","0","3","NA","3","3","0","3","NA","3","NA","3","0","0","3","3","0","3","3","4","z","03/26/19 12:39:40","The main experiment item","yes","FIN__AB__M21__7%3A10%3A17.osexp","C:\Users\ERP Testing Room\Desktop\Joanna\morph21","no","mono","no","18","no","white","no","yes","1080","legacy","3","3","C:/Users/ERP Testing Room/Desktop/Joanna/morph21/subject-169.csv","xpyriment","Kafkaesque Koffka","3.2.5","0","z","NA","NA","NA","NA","space","z","794","NA","NA","NA","NA","166099","794","2","legacy","1024","2","48000","-16","AB_m21","169","odd","NW_L_COMP","EMPLOYNESS","2016","181673","179956","177181","168131","NA","NA","NA","NA","181666","180453","NA","179456","NA","179450","181666","2032","181973","NA","NA","180673","2016","2016","181064","179450","2016","180673","181973","morph21_Oliver/Morris","4","2875","4","yes","1280","21"
"400","100","100","757.4","757.4","black","no","xpyriment","legacy","legacy","0","207","NA","uniform","56631","1000","0.0176581730854","1","undefined","1","0","4","4","4","0","4","4","4","NA","4","4","0","4","NA","4","4","0","4","NA","4","NA","4","0","0","4","4","0","4","4","5","/","03/26/19 12:39:40","The main experiment item","yes","FIN__AB__M21__7%3A10%3A17.osexp","C:\Users\ERP Testing Room\Desktop\Joanna\morph21","no","mono","no","18","no","white","no","yes","1080","legacy","4","4","C:/Users/ERP Testing Room/Desktop/Joanna/morph21/subject-169.csv","xpyriment","Kafkaesque Koffka","3.2.5","0","/","NA","NA","NA","NA","space","/","912","NA","NA","NA","NA","166099","912","2","legacy","1024","2","48000","-16","AB_m21","169","odd","FILL_W","EAT","2016","184739","183039","177181","168131","NA","NA","NA","NA","184736","183536","NA","182539","NA","182531","184736","2032","185139","NA","NA","183739","2016","2016","184139","182531","2016","183739","185139","morph21_Oliver/Morris","5","3787","5","yes","1280","25"
"350","100","100","743.333333333","743.333333333","black","no","xpyriment","legacy","legacy","0","206","NA","uniform","59061","1000","0.0169316469413","1","undefined","1","0","5","5","5","0","5","5","5","NA","5","5","0","5","NA","5","5","0","5","NA","5","NA","5","0","0","5","5","0","5","5","6","z","03/26/19 12:39:40","The main experiment item","yes","FIN__AB__M21__7%3A10%3A17.osexp","C:\Users\ERP Testing Room\Desktop\Joanna\morph21","no","mono","no","18","no","white","no","yes","1080","legacy","5","5","C:/Users/ERP Testing Room/Desktop/Joanna/morph21/subject-169.csv","xpyriment","Kafkaesque Koffka","3.2.5","0","z","NA","NA","NA","NA","space","z","673","NA","NA","NA","NA","166099","673","2","legacy","1024","2","48000","-16","AB_m21","169","odd","NW_L_SIMP","PICKENGE","2016","189414","186223","187906","168131","NA","NA","NA","NA","187900","186720","NA","185723","NA","185716","187900","2032","189765","NA","NA","186906","2016","2016","187298","185716","2016","186906","189765","morph21_Oliver/Morris","6","4460","6","yes","1280","5"
"350","100","100","714.571428571","714.571428571","black","no","xpyriment","legacy","legacy","0","202","NA","uniform","75129","1000","0.0133104393776","1","undefined","1","0","6","6","6","0","6","6","6","NA","6","6","0","6","NA","6","6","0","6","NA","6","NA","6","0","0","6","6","0","6","6","7","/","03/26/19 12:39:40","The main experiment item","yes","FIN__AB__M21__7%3A10%3A17.osexp","C:\Users\ERP Testing Room\Desktop\Joanna\morph21","no","mono","no","18","no","white","no","yes","1080","legacy","6","6","C:/Users/ERP Testing Room/Desktop/Joanna/morph21/subject-169.csv","xpyriment","Kafkaesque Koffka","3.2.5","0","/","NA","NA","NA","NA","space","/","542","NA","NA","NA","NA","166099","542","2","legacy","1024","2","48000","-16","AB_m21","169","odd","CW_L","PAINTER","2016","192549","190898","187906","168131","NA","NA","NA","NA","192542","191395","NA","190398","NA","190391","192542","2032","192899","NA","NA","191548","2016","2016","191940","190391","2016","191548","192899","morph21_Oliver/Morris","7","5002","7","yes","1280","18"
"200","87.5","87.5","697","697","black","no","xpyriment","legacy","legacy","0","208","NA","uniform","72829","1000","0.0137307940518","0","undefined","0","0","7","7","7","0","7","7","7","NA","7","7","0","7","NA","7","7","0","7","NA","7","NA","7","0","0","7","7","0","7","7","8","z","03/26/19 12:39:40","The main experiment item","yes","FIN__AB__M21__7%3A10%3A17.osexp","C:\Users\ERP Testing Room\Desktop\Joanna\morph21","no","mono","no","18","no","white","no","yes","1080","legacy","7","7","C:/Users/ERP Testing Room/Desktop/Joanna/morph21/subject-169.csv","xpyriment","Kafkaesque Koffka","3.2.5","0","/","NA","NA","NA","NA","space","/","574","NA","NA","NA","NA","166099","574","2","legacy","1024","2","48000","-16","AB_m21","169","odd","FILL_NW","VUNKS","2016","195732","194066","187906","168131","NA","NA","NA","NA","192542","194563","NA","193566","NA","193558","195728","2032","195932","NA","NA","194741","2016","2016","195132","193558","2016","194741","195932","morph21_Oliver/Morris","7","5576","8","yes","1280","49"
"400","88.8888888889","88.8888888889","680.888888889","680.888888889","black","no","xpyriment","legacy","legacy","0","205","NA","uniform","67607","1000","0.0147913677578","1","undefined","1","0","8","8","8","0","8","8","8","NA","8","8","0","8","NA","8","8","0","8","NA","8","NA","8","0","0","8","8","0","8","8","9","z","03/26/19 12:39:40","The main experiment item","yes","FIN__AB__M21__7%3A10%3A17.osexp","C:\Users\ERP Testing Room\Desktop\Joanna\morph21","no","mono","no","18","no","white","no","yes","1080","legacy","8","8","C:/Users/ERP Testing Room/Desktop/Joanna/morph21/subject-169.csv","xpyriment","Kafkaesque Koffka","3.2.5","0","z","NA","NA","NA","NA","space","z","552","NA","NA","NA","NA","166099","552","2","legacy","1024","2","48000","-16","AB_m21","169","odd","NW_S_SIMP","AIDIG","2016","200191","197033","198683","168131","NA","NA","NA","NA","198679","197530","NA","196533","NA","196522","198679","2032","200591","NA","NA","197683","2016","2016","198083","196522","2016","197682","200591","morph21_Oliver/Morris","8","6128","9","yes","1280","4"
"200","90","90","679.9","679.9","black","no","xpyriment","legacy","legacy","0","208","NA","uniform","69881","1000","0.014310041356","1","undefined","1","0","9","9","9","0","9","9","9","NA","9","9","0","9","NA","9","9","0","9","NA","9","NA","9","0","0","9","9","0","9","9","10","z","03/26/19 12:39:40","The main experiment item","yes","FIN__AB__M21__7%3A10%3A17.osexp","C:\Users\ERP Testing Room\Desktop\Joanna\morph21","no","mono","no","18","no","white","no","yes","1080","legacy","9","9","C:/Users/ERP Testing Room/Desktop/Joanna/morph21/subject-169.csv","xpyriment","Kafkaesque Koffka","3.2.5","0","z","NA","NA","NA","NA","space","z","671","NA","NA","NA","NA","166099","671","2","legacy","1024","2","48000","-16","AB_m21","169","odd","FILL_NW","GAIRS","2016","203316","201666","198683","168131","NA","NA","NA","NA","203308","202163","NA","201166","NA","201156","203308","2032","203516","NA","NA","202316","2016","2016","202708","201155","2016","202316","203516","morph21_Oliver/Morris","9","6799","10","yes","1280","23"
"350","90.9090909091","90.9090909091","683.272727273","683.272727273","black","no","xpyriment","legacy","legacy","0","207","NA","uniform","59593","1000","0.0167804943534","1","undefined","1","0","10","10","10","0","10","10","10","NA","10","10","0","10","NA","10","10","0","10","NA","10","NA","10","0","0","10","10","0","10","10","11","/","03/26/19 12:39:40","The main experiment item","yes","FIN__AB__M21__7%3A10%3A17.osexp","C:\Users\ERP Testing Room\Desktop\Joanna\morph21","no","mono","no","18","no","white","no","yes","1080","legacy","10","10","C:/Users/ERP Testing Room/Desktop/Joanna/morph21/subject-169.csv","xpyriment","Kafkaesque Koffka","3.2.5","0","/","NA","NA","NA","NA","space","/","717","NA","NA","NA","NA","166099","717","2","legacy","1024","2","48000","-16","AB_m21","169","odd","FILL_W","BRISK","2016","206350","204708","198683","168131","NA","NA","NA","NA","206347","205205","NA","204208","NA","204203","206347","2032","206700","NA","NA","205358","2016","2016","205750","204203","2016","205358","206700","morph21_Oliver/Morris","10","7516","11","yes","1280","8"
"350","91.6666666667","91.6666666667","679.583333333","679.583333333","black","no","xpyriment","legacy","legacy","0","208","NA","uniform","57580","1000","0.0173671413685","1","undefined","1","0","11","11","11","0","11","11","11","NA","11","11","0","11","NA","11","11","0","11","NA","11","NA","11","0","0","11","11","0","11","11","12","z","03/26/19 12:39:40","The main experiment item","yes","FIN__AB__M21__7%3A10%3A17.osexp","C:\Users\ERP Testing Room\Desktop\Joanna\morph21","no","mono","no","18","no","white","no","yes","1080","legacy","11","11","C:/Users/ERP Testing Room/Desktop/Joanna/morph21/subject-169.csv","xpyriment","Kafkaesque Koffka","3.2.5","0","z","NA","NA","NA","NA","space","z","639","NA","NA","NA","NA","166099","639","2","legacy","1024","2","48000","-16","AB_m21","169","odd","FILL_NW","JADS","2016","210993","207825","209483","168131","NA","NA","NA","NA","209478","208322","NA","207325","NA","207318","209478","2032","211343","NA","NA","208483","2016","2016","208883","207318","2016","208483","211343","morph21_Oliver/Morris","11","8155","12","yes","1280","31"
"250","92.3076923077","92.3076923077","677.461538462","677.461538462","black","no","xpyriment","legacy","legacy","0","201","NA","uniform","63321","1000","0.0157925490753","1","undefined","1","0","12","12","12","0","12","12","12","NA","12","12","0","12","NA","12","12","0","12","NA","12","NA","12","0","0","12","12","0","12","12","13","/","03/26/19 12:39:40","The main experiment item","yes","FIN__AB__M21__7%3A10%3A17.osexp","C:\Users\ERP Testing Room\Desktop\Joanna\morph21","no","mono","no","18","no","white","no","yes","1080","legacy","12","12","C:/Users/ERP Testing Room/Desktop/Joanna/morph21/subject-169.csv","xpyriment","Kafkaesque Koffka","3.2.5","0","/","NA","NA","NA","NA","space","/","652","NA","NA","NA","NA","166099","652","2","legacy","1024","2","48000","-16","AB_m21","169","odd","CW_S","NOTICEABLE","2016","214151","212476","209483","168131","NA","NA","NA","NA","214144","212973","NA","211976","NA","211969","214144","2032","214401","NA","NA","213151","2016","2016","213543","211969","2016","213151","214401","morph21_Oliver/Morris","12","8807","13","yes","1280","3"
"250","92.8571428571","92.8571428571","667.214285714","667.214285714","black","no","xpyriment","legacy","legacy","0","202","NA","uniform","64822","1000","0.0154268612508","1","undefined","1","0","13","13","13","0","13","13","13","NA","13","13","0","13","NA","13","13","0","13","NA","13","NA","13","0","0","13","13","0","13","13","14","/","03/26/19 12:39:40","The main experiment item","yes","FIN__AB__M21__7%3A10%3A17.osexp","C:\Users\ERP Testing Room\Desktop\Joanna\morph21","no","mono","no","18","no","white","no","yes","1080","legacy","13","13","C:/Users/ERP Testing Room/Desktop/Joanna/morph21/subject-169.csv","xpyriment","Kafkaesque Koffka","3.2.5","0","/","NA","NA","NA","NA","space","/","534","NA","NA","NA","NA","166099","534","2","legacy","1024","2","48000","-16","AB_m21","169","odd","CW_L","CREAMY","2016","217309","215568","209483","168131","NA","NA","NA","NA","217299","216065","NA","215068","NA","215060","217299","2032","217560","NA","NA","216309","2016","2016","216701","215060","2016","216309","217560","morph21_Oliver/Morris","13","9341","14","yes","1280","49"
"400","93.3333333333","93.3333333333","653.8","653.8","black","no","xpyriment","legacy","legacy","0","203","NA","uniform","68036","1000","0.0146981010054","1","undefined","1","0","14","14","14","0","14","14","14","NA","14","14","0","14","NA","14","14","0","14","NA","14","NA","14","0","0","14","14","0","14","14","15","z","03/26/19 12:39:40","The main experiment item","yes","FIN__AB__M21__7%3A10%3A17.osexp","C:\Users\ERP Testing Room\Desktop\Joanna\morph21","no","mono","no","18","no","white","no","yes","1080","legacy","14","14","C:/Users/ERP Testing Room/Desktop/Joanna/morph21/subject-169.csv","xpyriment","Kafkaesque Koffka","3.2.5","0","z","NA","NA","NA","NA","space","z","466","NA","NA","NA","NA","166099","466","2","legacy","1024","2","48000","-16","AB_m21","169","odd","NW_S_COMP","ARIDISM","2016","221901","218701","220393","168131","NA","NA","NA","NA","220385","219198","NA","218201","NA","218196","220385","2032","222301","NA","NA","219393","2016","2016","219784","218196","2016","219393","222301","morph21_Oliver/Morris","14","9807","15","yes","1280","9"
"300","93.75","93.75","646.6875","646.6875","black","no","xpyriment","legacy","legacy","0","202","NA","uniform","64632","1000","0.0154722119074","1","undefined","1","0","15","15","15","0","15","15","15","NA","15","15","0","15","NA","15","15","0","15","NA","15","NA","15","0","0","15","15","0","15","15","16","/","03/26/19 12:39:40","The main experiment item","yes","FIN__AB__M21__7%3A10%3A17.osexp","C:\Users\ERP Testing Room\Desktop\Joanna\morph21","no","mono","no","18","no","white","no","yes","1080","legacy","15","15","C:/Users/ERP Testing Room/Desktop/Joanna/morph21/subject-169.csv","xpyriment","Kafkaesque Koffka","3.2.5","0","/","NA","NA","NA","NA","space","/","540","NA","NA","NA","NA","166099","540","2","legacy","1024","2","48000","-16","AB_m21","169","odd","CW_L","DOUBTFUL","2016","225135","223426","220393","168131","NA","NA","NA","NA","225131","223923","NA","222926","NA","222921","225131","2032","225435","NA","NA","224143","2016","2016","224535","222921","2016","224143","225435","morph21_Oliver/Morris","15","10347","16","yes","1280","21"
"350","94.1176470588","94.1176470588","637.647058824","637.647058824","black","no","xpyriment","legacy","legacy","0","208","NA","uniform","76504","1000","0.0130712119628","1","undefined","1","0","16","16","16","0","16","16","16","NA","16","16","0","16","NA","16","16","0","16","NA","16","NA","16","0","0","16","16","0","16","16","17","z","03/26/19 12:39:40","The main experiment item","yes","FIN__AB__M21__7%3A10%3A17.osexp","C:\Users\ERP Testing Room\Desktop\Joanna\morph21","no","mono","no","18","no","white","no","yes","1080","legacy","16","16","C:/Users/ERP Testing Room/Desktop/Joanna/morph21/subject-169.csv","xpyriment","Kafkaesque Koffka","3.2.5","0","z","NA","NA","NA","NA","space","z","493","NA","NA","NA","NA","166099","493","2","legacy","1024","2","48000","-16","AB_m21","169","odd","FILL_NW","HEAS","2016","228294","226585","220393","168131","NA","NA","NA","NA","228288","227082","NA","226085","NA","226075","228288","2032","228644","NA","NA","227294","2016","2016","227686","226075","2016","227294","228644","morph21_Oliver/Morris","16","10840","17","yes","1280","26"
"200","94.4444444444","94.4444444444","629.722222222","629.722222222","black","no","xpyriment","legacy","legacy","0","207","NA","uniform","76590","1000","0.0130565347957","1","undefined","1","0","17","17","17","0","17","17","17","NA","17","17","0","17","NA","17","17","0","17","NA","17","NA","17","0","0","17","17","0","17","17","18","/","03/26/19 12:39:40","The main experiment item","yes","FIN__AB__M21__7%3A10%3A17.osexp","C:\Users\ERP Testing Room\Desktop\Joanna\morph21","no","mono","no","18","no","white","no","yes","1080","legacy","17","17","C:/Users/ERP Testing Room/Desktop/Joanna/morph21/subject-169.csv","xpyriment","Kafkaesque Koffka","3.2.5","0","/","NA","NA","NA","NA","space","/","495","NA","NA","NA","NA","166099","495","2","legacy","1024","2","48000","-16","AB_m21","169","odd","FILL_W","BLEAK","2016","233136","229944","231628","168131","NA","NA","NA","NA","231621","230441","NA","229444","NA","229436","231621","2032","233336","NA","NA","230628","2016","2016","231019","229435","2016","230628","233336","morph21_Oliver/Morris","17","11335","18","yes","1280","5"
"400","94.7368421053","94.7368421053","625.736842105","625.736842105","black","no","xpyriment","legacy","legacy","0","207","NA","uniform","67648","1000","0.0147824030274","1","undefined","1","0","18","18","18","0","18","18","18","NA","18","18","0","18","NA","18","18","0","18","NA","18","NA","18","0","0","18","18","0","18","18","19","/","03/26/19 12:39:40","The main experiment item","yes","FIN__AB__M21__7%3A10%3A17.osexp","C:\Users\ERP Testing Room\Desktop\Joanna\morph21","no","mono","no","18","no","white","no","yes","1080","legacy","18","18","C:/Users/ERP Testing Room/Desktop/Joanna/morph21/subject-169.csv","xpyriment","Kafkaesque Koffka","3.2.5","0","/","NA","NA","NA","NA","space","/","554","NA","NA","NA","NA","166099","554","2","legacy","1024","2","48000","-16","AB_m21","169","odd","FILL_W","CHIP","2016","236153","234503","231628","168131","NA","NA","NA","NA","236148","235000","NA","233994","NA","233987","236148","2032","236553","NA","NA","235153","2016","2016","235553","233987","2016","235153","236553","morph21_Oliver/Morris","18","11889","19","yes","1280","11"
"200","95","95","623.25","623.25","black","no","xpyriment","legacy","legacy","0","208","NA","uniform","67171","1000","0.014887376993","1","undefined","1","0","19","19","19","0","19","19","19","NA","19","19","0","19","NA","19","19","0","19","NA","19","NA","19","0","0","19","19","0","19","19","20","z","03/26/19 12:39:40","The main experiment item","yes","FIN__AB__M21__7%3A10%3A17.osexp","C:\Users\ERP Testing Room\Desktop\Joanna\morph21","no","mono","no","18","no","white","no","yes","1080","legacy","19","19","C:/Users/ERP Testing Room/Desktop/Joanna/morph21/subject-169.csv","xpyriment","Kafkaesque Koffka","3.2.5","0","z","NA","NA","NA","NA","space","z","576","NA","NA","NA","NA","166099","576","2","legacy","1024","2","48000","-16","AB_m21","169","odd","FILL_NW","PORDS","2016","239386","237686","231628","168131","NA","NA","NA","NA","239382","238183","NA","237186","NA","237178","239382","2032","239586","NA","NA","238395","2016","2016","238786","237177","2016","238395","239586","morph21_Oliver/Morris","19","12465","20","yes","1280","39"
"200","95.2380952381","95.2380952381","624","624","black","no","xpyriment","legacy","legacy","0","208","NA","uniform","70777","1000","0.0141288836769","1","undefined","1","0","20","20","20","0","20","20","20","NA","20","20","0","20","NA","20","20","0","20","NA","20","NA","20","0","0","20","20","0","20","20","21","z","03/26/19 12:39:40","The main experiment item","yes","FIN__AB__M21__7%3A10%3A17.osexp","C:\Users\ERP Testing Room\Desktop\Joanna\morph21","no","mono","no","18","no","white","no","yes","1080","legacy","20","20","C:/Users/ERP Testing Room/Desktop/Joanna/morph21/subject-169.csv","xpyriment","Kafkaesque Koffka","3.2.5","0","z","NA","NA","NA","NA","space","z","639","NA","NA","NA","NA","166099","639","2","legacy","1024","2","48000","-16","AB_m21","169","odd","FILL_NW","CINDS","2016","243936","240778","242428","168131","NA","NA","NA","NA","242418","241275","NA","240278","NA","240266","242418","2032","244137","NA","NA","241428","2016","2016","241820","240266","2016","241428","244137","morph21_Oliver/Morris","20","13104","21","yes","1280","6"
"200","95.4545454545","95.4545454545","620.5","620.5","black","no","xpyriment","legacy","legacy","0","203","NA","uniform","68006","1000","0.0147045848896","1","undefined","1","0","21","21","21","0","21","21","21","NA","21","21","0","21","NA","21","21","0","21","NA","21","NA","21","0","0","21","21","0","21","21","22","z","03/26/19 12:39:40","The main experiment item","yes","FIN__AB__M21__7%3A10%3A17.osexp","C:\Users\ERP Testing Room\Desktop\Joanna\morph21","no","mono","no","18","no","white","no","yes","1080","legacy","21","21","C:/Users/ERP Testing Room/Desktop/Joanna/morph21/subject-169.csv","xpyriment","Kafkaesque Koffka","3.2.5","0","z","NA","NA","NA","NA","space","z","547","NA","NA","NA","NA","166099","547","2","legacy","1024","2","48000","-16","AB_m21","169","odd","NW_S_COMP","PILLIZE","2016","247088","245421","242428","168131","NA","NA","NA","NA","247084","245918","NA","244921","NA","244916","247084","2032","247288","NA","NA","246088","2016","2016","246488","244916","2016","246088","247288","morph21_Oliver/Morris","21","13651","22","yes","1280","13"
"200","95.652173913","95.652173913","619.652173913","619.652173913","black","no","xpyriment","legacy","legacy","0","201","NA","uniform","71907","1000","0.0139068519059","1","undefined","1","0","22","22","22","0","22","22","22","NA","22","22","0","22","NA","22","22","0","22","NA","22","NA","22","0","0","22","22","0","22","22","23","/","03/26/19 12:39:40","The main experiment item","yes","FIN__AB__M21__7%3A10%3A17.osexp","C:\Users\ERP Testing Room\Desktop\Joanna\morph21","no","mono","no","18","no","white","no","yes","1080","legacy","22","22","C:/Users/ERP Testing Room/Desktop/Joanna/morph21/subject-169.csv","xpyriment","Kafkaesque Koffka","3.2.5","0","/","NA","NA","NA","NA","space","/","601","NA","NA","NA","NA","166099","601","2","legacy","1024","2","48000","-16","AB_m21","169","odd","CW_S","LOCALLY","2016","250146","248446","242428","168131","NA","NA","NA","NA","250139","248943","NA","247946","NA","247936","250139","2032","250346","NA","NA","249146","2016","2016","249538","247936","2016","249146","250346","morph21_Oliver/Morris","22","14252","23","yes","1280","37"
"400","95.8333333333","95.8333333333","615.041666667","615.041666667","black","no","xpyriment","legacy","legacy","0","206","NA","uniform","73789","1000","0.0135521554703","1","undefined","1","0","23","23","23","0","23","23","23","NA","23","23","0","23","NA","23","23","0","23","NA","23","NA","23","0","0","23","23","0","23","23","24","z","03/26/19 12:39:40","The main experiment item","yes","FIN__AB__M21__7%3A10%3A17.osexp","C:\Users\ERP Testing Room\Desktop\Joanna\morph21","no","mono","no","18","no","white","no","yes","1080","legacy","23","23","C:/Users/ERP Testing Room/Desktop/Joanna/morph21/subject-169.csv","xpyriment","Kafkaesque Koffka","3.2.5","0","z","NA","NA","NA","NA","space","z","509","NA","NA","NA","NA","166099","509","2","legacy","1024","2","48000","-16","AB_m21","169","odd","NW_L_SIMP","BOGADY","2016","254738","251546","253230","168131","NA","NA","NA","NA","253219","252043","NA","251046","NA","251039","253219","2032","255138","NA","NA","252230","2016","2016","252621","251039","2016","252230","255138","morph21_Oliver/Morris","23","14761","24","yes","1280","2"
"200","96","96","622.8","622.8","black","no","xpyriment","legacy","legacy","0","203","NA","uniform","64465","1000","0.0155122934926","1","undefined","1","0","24","24","24","0","24","24","24","NA","24","24","0","24","NA","24","24","0","24","NA","24","NA","24","0","0","24","24","0","24","24","25","z","03/26/19 12:39:40","The main experiment item","yes","FIN__AB__M21__7%3A10%3A17.osexp","C:\Users\ERP Testing Room\Desktop\Joanna\morph21","no","mono","no","18","no","white","no","yes","1080","legacy","24","24","C:/Users/ERP Testing Room/Desktop/Joanna/morph21/subject-169.csv","xpyriment","Kafkaesque Koffka","3.2.5","0","z","NA","NA","NA","NA","space","z","809","NA","NA","NA","NA","166099","809","2","legacy","1024","2","48000","-16","AB_m21","169","odd","NW_S_COMP","MELTANCE","2016","257938","256263","253230","168131","NA","NA","NA","NA","257930","256760","NA","255763","NA","255751","257930","2032","258138","NA","NA","256938","2016","2016","257330","255751","2016","256938","258138","morph21_Oliver/Morris","24","15570","25","yes","1280","1"
"250","92.3076923077","92.3076923077","636.923076923","636.923076923","black","no","xpyriment","legacy","legacy","0","203","NA","uniform","57925","1000","0.0172637030643","0","undefined","0","0","25","25","25","0","25","25","25","NA","25","25","0","25","NA","25","25","0","25","NA","25","NA","25","0","0","25","25","0","25","25","26","z","03/26/19 12:39:40","The main experiment item","yes","FIN__AB__M21__7%3A10%3A17.osexp","C:\Users\ERP Testing Room\Desktop\Joanna\morph21","no","mono","no","18","no","white","no","yes","1080","legacy","25","25","C:/Users/ERP Testing Room/Desktop/Joanna/morph21/subject-169.csv","xpyriment","Kafkaesque Koffka","3.2.5","0","None","NA","NA","NA","NA","space","None","990","NA","NA","NA","NA","166099","990","2","legacy","1024","2","48000","-16","AB_m21","169","odd","NW_S_COMP","BRANCHER","2016","260988","259330","253230","168131","NA","NA","NA","NA","257930","259827","NA","258830","NA","258825","260978","2032","261238","NA","NA","259988","2016","2016","260380","258825","2016","259988","261238","morph21_Oliver/Morris","24","16560","26","yes","1280","16"
"250","92.5925925926","92.5925925926","635.481481481","635.481481481","black","no","xpyriment","legacy","legacy","0","202","NA","uniform","68721","1000","0.0145515926718","1","undefined","1","0","26","26","26","0","26","26","26","NA","26","26","0","26","NA","26","26","0","26","NA","26","NA","26","0","0","26","26","0","26","26","27","/","03/26/19 12:39:40","The main experiment item","yes","FIN__AB__M21__7%3A10%3A17.osexp","C:\Users\ERP Testing Room\Desktop\Joanna\morph21","no","mono","no","18","no","white","no","yes","1080","legacy","26","26","C:/Users/ERP Testing Room/Desktop/Joanna/morph21/subject-169.csv","xpyriment","Kafkaesque Koffka","3.2.5","0","/","NA","NA","NA","NA","space","/","598","NA","NA","NA","NA","166099","598","2","legacy","1024","2","48000","-16","AB_m21","169","odd","CW_L","STRIKER","2016","265489","262289","263981","168131","NA","NA","NA","NA","263973","262786","NA","261788","NA","261780","263973","2032","265740","NA","NA","262981","2016","2016","263373","261780","2016","262981","265740","morph21_Oliver/Morris","25","17158","27","yes","1280","17"
"200","92.8571428571","92.8571428571","638","638","black","no","xpyriment","legacy","legacy","0","201","NA","uniform","63846","1000","0.0156626883438","1","undefined","1","0","27","27","27","0","27","27","27","NA","27","27","0","27","NA","27","27","0","27","NA","27","NA","27","0","0","27","27","0","27","27","28","/","03/26/19 12:39:40","The main experiment item","yes","FIN__AB__M21__7%3A10%3A17.osexp","C:\Users\ERP Testing Room\Desktop\Joanna\morph21","no","mono","no","18","no","white","no","yes","1080","legacy","27","27","C:/Users/ERP Testing Room/Desktop/Joanna/morph21/subject-169.csv","xpyriment","Kafkaesque Koffka","3.2.5","0","/","NA","NA","NA","NA","space","/","706","NA","NA","NA","NA","166099","706","2","legacy","1024","2","48000","-16","AB_m21","169","odd","CW_S","ENJOYMENT","2016","268456","266798","263981","168131","NA","NA","NA","NA","268453","267295","NA","266298","NA","266293","268453","2032","268656","NA","NA","267465","2016","2016","267856","266293","2016","267465","268656","morph21_Oliver/Morris","26","17864","28","yes","1280","40"
"200","93.1034482759","93.1034482759","633.793103448","633.793103448","black","no","xpyriment","legacy","legacy","0","202","NA","uniform","72512","1000","0.0137908208297","1","undefined","1","0","28","28","28","0","28","28","28","NA","28","28","0","28","NA","28","28","0","28","NA","28","NA","28","0","0","28","28","0","28","28","29","/","03/26/19 12:39:40","The main experiment item","yes","FIN__AB__M21__7%3A10%3A17.osexp","C:\Users\ERP Testing Room\Desktop\Joanna\morph21","no","mono","no","18","no","white","no","yes","1080","legacy","28","28","C:/Users/ERP Testing Room/Desktop/Joanna/morph21/subject-169.csv","xpyriment","Kafkaesque Koffka","3.2.5","0","/","NA","NA","NA","NA","space","/","516","NA","NA","NA","NA","166099","516","2","legacy","1024","2","48000","-16","AB_m21","169","odd","CW_L","VERBAL","2016","271431","269723","263981","168131","NA","NA","NA","NA","271423","270220","NA","269223","NA","269217","271423","2032","271631","NA","NA","270431","2016","2016","270823","269217","2016","270431","271631","morph21_Oliver/Morris","27","18380","29","yes","1280","50"
"400","93.3333333333","93.3333333333","630.633333333","630.633333333","black","no","xpyriment","legacy","legacy","0","201","NA","uniform","68230","1000","0.0146563095413","1","undefined","1","0","29","29","29","0","29","29","29","NA","29","29","0","29","NA","29","29","0","29","NA","29","NA","29","0","0","29","29","0","29","29","30","/","03/26/19 12:39:40","The main experiment item","yes","FIN__AB__M21__7%3A10%3A17.osexp","C:\Users\ERP Testing Room\Desktop\Joanna\morph21","no","mono","no","18","no","white","no","yes","1080","legacy","29","29","C:/Users/ERP Testing Room/Desktop/Joanna/morph21/subject-169.csv","xpyriment","Kafkaesque Koffka","3.2.5","0","/","NA","NA","NA","NA","space","/","539","NA","NA","NA","NA","166099","539","2","legacy","1024","2","48000","-16","AB_m21","169","odd","CW_S","RAIDER","2016","275965","272773","274456","168131","NA","NA","NA","NA","274449","273270","NA","272273","NA","272267","274449","2032","276365","NA","NA","273456","2016","2016","273848","272267","2016","273456","276365","morph21_Oliver/Morris","28","18919","30","yes","1280","12"
"400","93.5483870968","93.5483870968","627.032258065","627.032258065","black","no","xpyriment","legacy","legacy","0","207","NA","uniform","75044","1000","0.0133255156975","1","undefined","1","0","30","30","30","0","30","30","30","NA","30","30","0","30","NA","30","30","0","30","NA","30","NA","30","0","0","30","30","0","30","30","31","/","03/26/19 12:39:40","The main experiment item","yes","FIN__AB__M21__7%3A10%3A17.osexp","C:\Users\ERP Testing Room\Desktop\Joanna\morph21","no","mono","no","18","no","white","no","yes","1080","legacy","30","30","C:/Users/ERP Testing Room/Desktop/Joanna/morph21/subject-169.csv","xpyriment","Kafkaesque Koffka","3.2.5","0","/","NA","NA","NA","NA","space","/","519","NA","NA","NA","NA","166099","519","2","legacy","1024","2","48000","-16","AB_m21","169","odd","FILL_W","QUIT","2016","279123","277473","274456","168131","NA","NA","NA","NA","279116","277970","NA","276973","NA","276965","279116","2032","279523","NA","NA","278123","2016","2016","278515","276965","2016","278123","279523","morph21_Oliver/Morris","29","19438","31","yes","1280","21"
"300","93.75","93.75","633.03125","633.03125","black","no","xpyriment","legacy","legacy","0","208","NA","uniform","61464","1000","0.0162696863204","1","undefined","1","0","31","31","31","0","31","31","31","NA","31","31","0","31","NA","31","31","0","31","NA","31","NA","31","0","0","31","31","0","31","31","32","z","03/26/19 12:39:40","The main experiment item","yes","FIN__AB__M21__7%3A10%3A17.osexp","C:\Users\ERP Testing Room\Desktop\Joanna\morph21","no","mono","no","18","no","white","no","yes","1080","legacy","31","31","C:/Users/ERP Testing Room/Desktop/Joanna/morph21/subject-169.csv","xpyriment","Kafkaesque Koffka","3.2.5","0","z","NA","NA","NA","NA","space","z","819","NA","NA","NA","NA","166099","819","2","legacy","1024","2","48000","-16","AB_m21","169","odd","FILL_NW","DASK","2016","282224","280566","274456","168131","NA","NA","NA","NA","282218","281063","NA","280066","NA","280057","282218","2032","282524","NA","NA","281224","2016","2016","281616","280057","2016","281224","282524","morph21_Oliver/Morris","30","20257","32","yes","1280","12"
"300","93.9393939394","93.9393939394","631.212121212","631.212121212","black","no","xpyriment","legacy","legacy","0","202","NA","uniform","72703","1000","0.0137545905946","1","undefined","1","0","32","32","32","0","32","32","32","NA","32","32","0","32","NA","32","32","0","32","NA","32","NA","32","0","0","32","32","0","32","32","33","/","03/26/19 12:39:40","The main experiment item","yes","FIN__AB__M21__7%3A10%3A17.osexp","C:\Users\ERP Testing Room\Desktop\Joanna\morph21","no","mono","no","18","no","white","no","yes","1080","legacy","32","32","C:/Users/ERP Testing Room/Desktop/Joanna/morph21/subject-169.csv","xpyriment","Kafkaesque Koffka","3.2.5","0","/","NA","NA","NA","NA","space","/","573","NA","NA","NA","NA","166099","573","2","legacy","1024","2","48000","-16","AB_m21","169","odd","CW_L","WEEDY","2016","286866","283658","285358","168131","NA","NA","NA","NA","285353","284155","NA","283158","NA","283153","285353","2032","287166","NA","NA","284358","2016","2016","284758","283153","2016","284358","287166","morph21_Oliver/Morris","31","20830","33","yes","1280","48"
"350","94.1176470588","94.1176470588","633.058823529","633.058823529","black","no","xpyriment","legacy","legacy","0","206","NA","uniform","68168","1000","0.0146696397136","1","undefined","1","0","33","33","33","0","33","33","33","NA","33","33","0","33","NA","33","33","0","33","NA","33","NA","33","0","0","33","33","0","33","33","34","z","03/26/19 12:39:40","The main experiment item","yes","FIN__AB__M21__7%3A10%3A17.osexp","C:\Users\ERP Testing Room\Desktop\Joanna\morph21","no","mono","no","18","no","white","no","yes","1080","legacy","33","33","C:/Users/ERP Testing Room/Desktop/Joanna/morph21/subject-169.csv","xpyriment","Kafkaesque Koffka","3.2.5","0","z","NA","NA","NA","NA","space","z","694","NA","NA","NA","NA","166099","694","2","legacy","1024","2","48000","-16","AB_m21","169","odd","NW_L_SIMP","CRITICANGE","2016","289941","288283","285358","168131","NA","NA","NA","NA","289934","288780","NA","287783","NA","287777","289934","2032","290291","NA","NA","288941","2016","2016","289333","287777","2016","288941","290291","morph21_Oliver/Morris","32","21524","34","yes","1280","22"
"250","91.4285714286","91.4285714286","627.942857143","627.942857143","black","no","xpyriment","legacy","legacy","0","204","NA","uniform","71623","1000","0.0139619954484","0","undefined","0","0","34","34","34","0","34","34","34","NA","34","34","0","34","NA","34","34","0","34","NA","34","NA","34","0","0","34","34","0","34","34","35","z","03/26/19 12:39:40","The main experiment item","yes","FIN__AB__M21__7%3A10%3A17.osexp","C:\Users\ERP Testing Room\Desktop\Joanna\morph21","no","mono","no","18","no","white","no","yes","1080","legacy","34","34","C:/Users/ERP Testing Room/Desktop/Joanna/morph21/subject-169.csv","xpyriment","Kafkaesque Koffka","3.2.5","0","/","NA","NA","NA","NA","space","/","454","NA","NA","NA","NA","166099","454","2","legacy","1024","2","48000","-16","AB_m21","169","odd","NW_L_COMP","FREENESS","2016","293125","291408","285358","168131","NA","NA","NA","NA","289934","291905","NA","290908","NA","290898","293118","2032","293375","NA","NA","292125","2016","2016","292516","290898","2016","292125","293375","morph21_Oliver/Morris","32","21978","35","yes","1280","15"
"400","91.6666666667","91.6666666667","631.583333333","631.583333333","black","no","xpyriment","legacy","legacy","0","207","NA","uniform","54962","1000","0.0181943888505","1","undefined","1","0","35","35","35","0","35","35","35","NA","35","35","0","35","NA","35","35","0","35","NA","35","NA","35","0","0","35","35","0","35","35","36","/","03/26/19 12:39:40","The main experiment item","yes","FIN__AB__M21__7%3A10%3A17.osexp","C:\Users\ERP Testing Room\Desktop\Joanna\morph21","no","mono","no","18","no","white","no","yes","1080","legacy","35","35","C:/Users/ERP Testing Room/Desktop/Joanna/morph21/subject-169.csv","xpyriment","Kafkaesque Koffka","3.2.5","0","/","NA","NA","NA","NA","space","/","759","NA","NA","NA","NA","166099","759","2","legacy","1024","2","48000","-16","AB_m21","169","odd","FILL_W","LITHE","2016","297801","294633","296292","168131","NA","NA","NA","NA","296288","295130","NA","294133","NA","294122","296288","2032","298201","NA","NA","295300","2016","2016","295692","294122","2016","295300","298201","morph21_Oliver/Morris","33","22737","36","yes","1280","23"
"400","91.8918918919","91.8918918919","629.081081081","629.081081081","black","no","xpyriment","legacy","legacy","0","206","NA","uniform","72509","1000","0.0137913914135","1","undefined","1","0","36","36","36","0","36","36","36","NA","36","36","0","36","NA","36","36","0","36","NA","36","NA","36","0","0","36","36","0","36","36","37","z","03/26/19 12:39:40","The main experiment item","yes","FIN__AB__M21__7%3A10%3A17.osexp","C:\Users\ERP Testing Room\Desktop\Joanna\morph21","no","mono","no","18","no","white","no","yes","1080","legacy","36","36","C:/Users/ERP Testing Room/Desktop/Joanna/morph21/subject-169.csv","xpyriment","Kafkaesque Koffka","3.2.5","0","z","NA","NA","NA","NA","space","z","539","NA","NA","NA","NA","166099","539","2","legacy","1024","2","48000","-16","AB_m21","169","odd","NW_L_SIMP","VALIDEL","2016","301168","299493","296292","168131","NA","NA","NA","NA","301159","299990","NA","298985","NA","298974","301159","2032","301568","NA","NA","300168","2016","2016","300560","298974","2016","300168","301568","morph21_Oliver/Morris","34","23276","37","yes","1280","23"
"350","89.4736842105","89.4736842105","630.263157895","630.263157895","black","no","xpyriment","legacy","legacy","0","203","NA","uniform","58673","1000","0.0170436146098","0","undefined","0","0","37","37","37","0","37","37","37","NA","37","37","0","37","NA","37","37","0","37","NA","37","NA","37","0","0","37","37","0","37","37","38","z","03/26/19 12:39:40","The main experiment item","yes","FIN__AB__M21__7%3A10%3A17.osexp","C:\Users\ERP Testing Room\Desktop\Joanna\morph21","no","mono","no","18","no","white","no","yes","1080","legacy","37","37","C:/Users/ERP Testing Room/Desktop/Joanna/morph21/subject-169.csv","xpyriment","Kafkaesque Koffka","3.2.5","0","/","NA","NA","NA","NA","space","/","674","NA","NA","NA","NA","166099","674","2","legacy","1024","2","48000","-16","AB_m21","169","odd","NW_S_COMP","HEIGHTENCE","2016","304393","302718","296292","168131","NA","NA","NA","NA","301159","303215","NA","302218","NA","302209","304385","2032","304743","NA","NA","303393","2016","2016","303785","302209","2016","303393","304743","morph21_Oliver/Morris","34","23950","38","yes","1280","18"
"350","89.7435897436","89.7435897436","629.435897436","629.435897436","black","no","xpyriment","legacy","legacy","0","207","NA","uniform","64114","1000","0.0155972174564","1","undefined","1","0","38","38","38","0","38","38","38","NA","38","38","0","38","NA","38","38","0","38","NA","38","NA","38","0","0","38","38","0","38","38","39","/","03/26/19 12:39:40","The main experiment item","yes","FIN__AB__M21__7%3A10%3A17.osexp","C:\Users\ERP Testing Room\Desktop\Joanna\morph21","no","mono","no","18","no","white","no","yes","1080","legacy","38","38","C:/Users/ERP Testing Room/Desktop/Joanna/morph21/subject-169.csv","xpyriment","Kafkaesque Koffka","3.2.5","0","/","NA","NA","NA","NA","space","/","598","NA","NA","NA","NA","166099","598","2","legacy","1024","2","48000","-16","AB_m21","169","odd","FILL_W","FAINT","2016","309210","305960","307701","168131","NA","NA","NA","NA","307697","306457","NA","305460","NA","305453","307697","2032","309560","NA","NA","306701","2016","2016","307101","305453","2016","306701","309560","morph21_Oliver/Morris","35","24548","39","yes","1280","31"
"200","90","90","630.15","630.15","black","no","xpyriment","legacy","legacy","0","208","NA","uniform","62379","1000","0.0160310360859","1","undefined","1","0","39","39","39","0","39","39","39","NA","39","39","0","39","NA","39","39","0","39","NA","39","NA","39","0","0","39","39","0","39","39","40","z","03/26/19 12:39:40","The main experiment item","yes","FIN__AB__M21__7%3A10%3A17.osexp","C:\Users\ERP Testing Room\Desktop\Joanna\morph21","no","mono","no","18","no","white","no","yes","1080","legacy","39","39","C:/Users/ERP Testing Room/Desktop/Joanna/morph21/subject-169.csv","xpyriment","Kafkaesque Koffka","3.2.5","0","z","NA","NA","NA","NA","space","z","658","NA","NA","NA","NA","166099","658","2","legacy","1024","2","48000","-16","AB_m21","169","odd","FILL_NW","SMADE","2016","312377","310677","307701","168131","NA","NA","NA","NA","312370","311174","NA","310177","NA","310166","312370","2032","312577","NA","NA","311377","2016","2016","311768","310166","2016","311377","312577","morph21_Oliver/Morris","36","25206","40","yes","1280","42"
"400","90.243902439","90.243902439","629.292682927","629.292682927","black","no","xpyriment","legacy","legacy","0","207","NA","uniform","72882","1000","0.0137208089789","1","undefined","1","0","40","40","40","0","40","40","40","NA","40","40","0","40","NA","40","40","0","40","NA","40","NA","40","0","0","40","40","0","40","40","41","/","03/26/19 12:39:40","The main experiment item","yes","FIN__AB__M21__7%3A10%3A17.osexp","C:\Users\ERP Testing Room\Desktop\Joanna\morph21","no","mono","no","18","no","white","no","yes","1080","legacy","40","40","C:/Users/ERP Testing Room/Desktop/Joanna/morph21/subject-169.csv","xpyriment","Kafkaesque Koffka","3.2.5","0","/","NA","NA","NA","NA","space","/","595","NA","NA","NA","NA","166099","595","2","legacy","1024","2","48000","-16","AB_m21","169","odd","FILL_W","STEEP","2016","315353","313710","307701","168131","NA","NA","NA","NA","315348","314207","NA","313210","NA","313198","315348","2032","315753","NA","NA","314352","2016","2016","314753","313198","2016","314352","315753","morph21_Oliver/Morris","37","25801","41","yes","1280","16"
"300","90.4761904762","90.4761904762","628.976190476","628.976190476","black","no","xpyriment","legacy","legacy","0","206","NA","uniform","63938","1000","0.0156401513967","1","undefined","1","0","41","41","41","0","41","41","41","NA","41","41","0","41","NA","41","41","0","41","NA","41","NA","41","0","0","41","41","0","41","41","42","z","03/26/19 12:39:40","The main experiment item","yes","FIN__AB__M21__7%3A10%3A17.osexp","C:\Users\ERP Testing Room\Desktop\Joanna\morph21","no","mono","no","18","no","white","no","yes","1080","legacy","41","41","C:/Users/ERP Testing Room/Desktop/Joanna/morph21/subject-169.csv","xpyriment","Kafkaesque Koffka","3.2.5","0","z","NA","NA","NA","NA","space","z","616","NA","NA","NA","NA","166099","616","2","legacy","1024","2","48000","-16","AB_m21","169","odd","NW_L_SIMP","ELBOWILM","2016","320120","316953","318611","168131","NA","NA","NA","NA","318602","317450","NA","316453","NA","316448","318602","2032","320420","NA","NA","317611","2016","2016","318003","316448","2016","317611","320420","morph21_Oliver/Morris","38","26417","42","yes","1280","10"
"200","90.6976744186","90.6976744186","626.23255814","626.23255814","black","no","xpyriment","legacy","legacy","0","203","NA","uniform","68961","1000","0.0145009498122","1","undefined","1","0","42","42","42","0","42","42","42","NA","42","42","0","42","NA","42","42","0","42","NA","42","NA","42","0","0","42","42","0","42","42","43","z","03/26/19 12:39:40","The main experiment item","yes","FIN__AB__M21__7%3A10%3A17.osexp","C:\Users\ERP Testing Room\Desktop\Joanna\morph21","no","mono","no","18","no","white","no","yes","1080","legacy","42","42","C:/Users/ERP Testing Room/Desktop/Joanna/morph21/subject-169.csv","xpyriment","Kafkaesque Koffka","3.2.5","0","z","NA","NA","NA","NA","space","z","511","NA","NA","NA","NA","166099","511","2","legacy","1024","2","48000","-16","AB_m21","169","odd","NW_S_COMP","YANKORY","2016","323220","321536","318611","168131","NA","NA","NA","NA","323216","322034","NA","321036","NA","321032","323216","2032","323420","NA","NA","322228","2016","2016","322620","321031","2016","322228","323420","morph21_Oliver/Morris","39","26928","43","yes","1280","23"
"300","90.9090909091","90.9090909091","623.75","623.75","black","no","xpyriment","legacy","legacy","0","201","NA","uniform","63341","1000","0.0157875625582","1","undefined","1","0","43","43","43","0","43","43","43","NA","43","43","0","43","NA","43","43","0","43","NA","43","NA","43","0","0","43","43","0","43","43","44","/","03/26/19 12:39:40","The main experiment item","yes","FIN__AB__M21__7%3A10%3A17.osexp","C:\Users\ERP Testing Room\Desktop\Joanna\morph21","no","mono","no","18","no","white","no","yes","1080","legacy","43","43","C:/Users/ERP Testing Room/Desktop/Joanna/morph21/subject-169.csv","xpyriment","Kafkaesque Koffka","3.2.5","0","/","NA","NA","NA","NA","space","/","517","NA","NA","NA","NA","166099","517","2","legacy","1024","2","48000","-16","AB_m21","169","odd","CW_S","DESTROYER","2016","326262","324595","318611","168131","NA","NA","NA","NA","326251","325092","NA","324095","NA","324084","326251","2032","326562","NA","NA","325262","2016","2016","325653","324084","2016","325262","326562","morph21_Oliver/Morris","40","27445","44","yes","1280","14"
"200","91.1111111111","91.1111111111","621.955555556","621.955555556","black","no","xpyriment","legacy","legacy","0","204","NA","uniform","71608","1000","0.0139649201207","1","undefined","1","0","44","44","44","0","44","44","44","NA","44","44","0","44","NA","44","44","0","44","NA","44","NA","44","0","0","44","44","0","44","44","45","z","03/26/19 12:39:40","The main experiment item","yes","FIN__AB__M21__7%3A10%3A17.osexp","C:\Users\ERP Testing Room\Desktop\Joanna\morph21","no","mono","no","18","no","white","no","yes","1080","legacy","44","44","C:/Users/ERP Testing Room/Desktop/Joanna/morph21/subject-169.csv","xpyriment","Kafkaesque Koffka","3.2.5","0","z","NA","NA","NA","NA","space","z","543","NA","NA","NA","NA","166099","543","2","legacy","1024","2","48000","-16","AB_m21","169","odd","NW_L_COMP","GASFUL","2016","330929","327762","329420","168131","NA","NA","NA","NA","329412","328259","NA","327262","NA","327257","329412","2032","331129","NA","NA","328420","2016","2016","328812","327257","2016","328420","331129","morph21_Oliver/Morris","41","27988","45","yes","1280","6"
"300","91.3043478261","91.3043478261","619.652173913","619.652173913","black","no","xpyriment","legacy","legacy","0","208","NA","uniform","70017","1000","0.0142822457403","1","undefined","1","0","45","45","45","0","45","45","45","NA","45","45","0","45","NA","45","45","0","45","NA","45","NA","45","0","0","45","45","0","45","45","46","z","03/26/19 12:39:40","The main experiment item","yes","FIN__AB__M21__7%3A10%3A17.osexp","C:\Users\ERP Testing Room\Desktop\Joanna\morph21","no","mono","no","18","no","white","no","yes","1080","legacy","45","45","C:/Users/ERP Testing Room/Desktop/Joanna/morph21/subject-169.csv","xpyriment","Kafkaesque Koffka","3.2.5","0","z","NA","NA","NA","NA","space","z","516","NA","NA","NA","NA","166099","516","2","legacy","1024","2","48000","-16","AB_m21","169","odd","FILL_NW","TREMP","2016","333871","332221","329420","168131","NA","NA","NA","NA","333862","332718","NA","331720","NA","331708","333862","2032","334171","NA","NA","332871","2016","2016","333263","331708","2016","332871","334171","morph21_Oliver/Morris","42","28504","46","yes","1280","20"
"250","91.4893617021","91.4893617021","619.063829787","619.063829787","black","no","xpyriment","legacy","legacy","0","201","NA","uniform","67577","1000","0.0147979342084","1","undefined","1","0","46","46","46","0","46","46","46","NA","46","46","0","46","NA","46","46","0","46","NA","46","NA","46","0","0","46","46","0","46","46","47","/","03/26/19 12:39:40","The main experiment item","yes","FIN__AB__M21__7%3A10%3A17.osexp","C:\Users\ERP Testing Room\Desktop\Joanna\morph21","no","mono","no","18","no","white","no","yes","1080","legacy","46","46","C:/Users/ERP Testing Room/Desktop/Joanna/morph21/subject-169.csv","xpyriment","Kafkaesque Koffka","3.2.5","0","/","NA","NA","NA","NA","space","/","592","NA","NA","NA","NA","166099","592","2","legacy","1024","2","48000","-16","AB_m21","169","odd","CW_S","PLANNER","2016","336955","335288","329420","168131","NA","NA","NA","NA","336948","335785","NA","334788","NA","334778","336948","2032","337205","NA","NA","335955","2016","2016","336346","334778","2016","335955","337205","morph21_Oliver/Morris","43","29096","47","yes","1280","22"
"250","91.6666666667","91.6666666667","618.666666667","618.666666667","black","no","xpyriment","legacy","legacy","0","207","NA","uniform","72580","1000","0.013777900248","1","undefined","1","0","47","47","47","0","47","47","47","NA","47","47","0","47","NA","47","47","0","47","NA","47","NA","47","0","0","47","47","0","47","47","48","/","03/26/19 12:39:40","The main experiment item","yes","FIN__AB__M21__7%3A10%3A17.osexp","C:\Users\ERP Testing Room\Desktop\Joanna\morph21","no","mono","no","18","no","white","no","yes","1080","legacy","47","47","C:/Users/ERP Testing Room/Desktop/Joanna/morph21/subject-169.csv","xpyriment","Kafkaesque Koffka","3.2.5","0","/","NA","NA","NA","NA","space","/","600","NA","NA","NA","NA","166099","600","2","legacy","1024","2","48000","-16","AB_m21","169","odd","FILL_W","SPLICE","2016","341455","338280","339947","168131","NA","NA","NA","NA","339940","338777","NA","337780","NA","337771","339940","2032","341705","NA","NA","338947","2016","2016","339338","337771","2016","338947","341705","morph21_Oliver/Morris","44","29696","48","yes","1280","22"
"300","91.8367346939","91.8367346939","616.387755102","616.387755102","black","no","xpyriment","legacy","legacy","0","201","NA","uniform","66324","1000","0.0150774983415","1","undefined","1","0","48","48","48","0","48","48","48","NA","48","48","0","48","NA","48","48","0","48","NA","48","NA","48","0","0","48","48","0","48","48","49","/","03/26/19 12:39:40","The main experiment item","yes","FIN__AB__M21__7%3A10%3A17.osexp","C:\Users\ERP Testing Room\Desktop\Joanna\morph21","no","mono","no","18","no","white","no","yes","1080","legacy","48","48","C:/Users/ERP Testing Room/Desktop/Joanna/morph21/subject-169.csv","xpyriment","Kafkaesque Koffka","3.2.5","0","/","NA","NA","NA","NA","space","/","507","NA","NA","NA","NA","166099","507","2","legacy","1024","2","48000","-16","AB_m21","169","odd","CW_S","GUILTY","2016","344472","342772","339947","168131","NA","NA","NA","NA","344463","343269","NA","342272","NA","342265","344463","2032","344772","NA","NA","343472","2016","2016","343863","342265","2016","343472","344772","morph21_Oliver/Morris","45","30203","49","yes","1280","34"
"200","92","92","615.88","615.88","black","no","xpyriment","legacy","legacy","0","208","NA","uniform","71715","1000","0.0139440842223","1","undefined","1","0","49","49","49","0","49","49","49","NA","49","49","0","49","NA","49","49","0","49","NA","49","NA","49","0","0","49","49","0","49","49","50","z","03/26/19 12:39:40","The main experiment item","yes","FIN__AB__M21__7%3A10%3A17.osexp","C:\Users\ERP Testing Room\Desktop\Joanna\morph21","no","mono","no","18","no","white","no","yes","1080","legacy","49","49","C:/Users/ERP Testing Room/Desktop/Joanna/morph21/subject-169.csv","xpyriment","Kafkaesque Koffka","3.2.5","0","z","NA","NA","NA","NA","space","z","591","NA","NA","NA","NA","166099","591","2","legacy","1024","2","48000","-16","AB_m21","169","odd","FILL_NW","HOITS","2016","347589","345922","339947","168131","NA","NA","NA","NA","347578","346419","NA","345422","NA","345417","347578","2032","347789","NA","NA","346588","2016","2016","346980","345417","2016","346588","347789","morph21_Oliver/Morris","46","30794","50","yes","1280","30"
"400","92.1568627451","92.1568627451","619.294117647","619.294117647","black","no","xpyriment","legacy","legacy","0","204","NA","uniform","57744","1000","0.0173178165697","1","undefined","1","0","50","50","50","0","50","50","50","NA","50","50","0","50","NA","50","50","0","50","NA","50","NA","50","0","0","50","50","0","50","50","51","z","03/26/19 12:39:40","The main experiment item","yes","FIN__AB__M21__7%3A10%3A17.osexp","C:\Users\ERP Testing Room\Desktop\Joanna\morph21","no","mono","no","18","no","white","no","yes","1080","legacy","50","50","C:/Users/ERP Testing Room/Desktop/Joanna/morph21/subject-169.csv","xpyriment","Kafkaesque Koffka","3.2.5","0","z","NA","NA","NA","NA","space","z","790","NA","NA","NA","NA","166099","790","2","legacy","1024","2","48000","-16","AB_m21","169","odd","NW_L_COMP","BOILOUS","2016","352106","348947","350598","168131","NA","NA","NA","NA","350595","349444","NA","348447","NA","348438","350595","2032","352507","NA","NA","349605","2016","2016","349998","348438","2016","349605","352507","morph21_Oliver/Morris","47","31584","51","yes","1280","18"
"250","92.3076923077","92.3076923077","618.192307692","618.192307692","black","no","xpyriment","legacy","legacy","0","207","NA","uniform","70270","1000","0.0142308239647","1","undefined","1","0","51","51","51","0","51","51","51","NA","51","51","0","51","NA","51","51","0","51","NA","51","NA","51","0","0","51","51","0","51","51","52","/","03/26/19 12:39:40","The main experiment item","yes","FIN__AB__M21__7%3A10%3A17.osexp","C:\Users\ERP Testing Room\Desktop\Joanna\morph21","no","mono","no","18","no","white","no","yes","1080","legacy","51","51","C:/Users/ERP Testing Room/Desktop/Joanna/morph21/subject-169.csv","xpyriment","Kafkaesque Koffka","3.2.5","0","/","NA","NA","NA","NA","space","/","562","NA","NA","NA","NA","166099","562","2","legacy","1024","2","48000","-16","AB_m21","169","odd","FILL_W","SOUGHT","2016","355265","353606","350598","168131","NA","NA","NA","NA","355262","354104","NA","353106","NA","353097","355262","2032","355515","NA","NA","354273","2016","2016","354665","353097","2016","354273","355515","morph21_Oliver/Morris","48","32146","52","yes","1280","40"
"250","90.5660377358","90.5660377358","625.320754717","625.320754717","black","no","xpyriment","legacy","legacy","0","203","NA","uniform","55147","1000","0.0181333526756","0","undefined","0","0","52","52","52","0","52","52","52","NA","52","52","0","52","NA","52","52","0","52","NA","52","NA","52","0","0","52","52","0","52","52","53","z","03/26/19 12:39:40","The main experiment item","yes","FIN__AB__M21__7%3A10%3A17.osexp","C:\Users\ERP Testing Room\Desktop\Joanna\morph21","no","mono","no","18","no","white","no","yes","1080","legacy","52","52","C:/Users/ERP Testing Room/Desktop/Joanna/morph21/subject-169.csv","xpyriment","Kafkaesque Koffka","3.2.5","0","None","NA","NA","NA","NA","space","None","996","NA","NA","NA","NA","166099","996","2","legacy","1024","2","48000","-16","AB_m21","169","odd","NW_S_COMP","TREASONIZE","2016","358348","356665","350598","168131","NA","NA","NA","NA","355262","357162","NA","356165","NA","356158","358344","2032","358598","NA","NA","357348","2016","2016","357748","356158","2016","357348","358598","morph21_Oliver/Morris","48","33142","53","yes","1280","14"
"300","90.7407407407","90.7407407407","622.777777778","622.777777778","black","no","xpyriment","legacy","legacy","0","207","NA","uniform","66880","1000","0.01495215311","1","undefined","1","0","53","53","53","0","53","53","53","NA","53","53","0","53","NA","53","53","0","53","NA","53","NA","53","0","0","53","53","0","53","53","54","/","03/26/19 12:39:40","The main experiment item","yes","FIN__AB__M21__7%3A10%3A17.osexp","C:\Users\ERP Testing Room\Desktop\Joanna\morph21","no","mono","no","18","no","white","no","yes","1080","legacy","53","53","C:/Users/ERP Testing Room/Desktop/Joanna/morph21/subject-169.csv","xpyriment","Kafkaesque Koffka","3.2.5","0","/","NA","NA","NA","NA","space","/","488","NA","NA","NA","NA","166099","488","2","legacy","1024","2","48000","-16","AB_m21","169","odd","FILL_W","BAKE","2016","362832","359648","361323","168131","NA","NA","NA","NA","361314","360146","NA","359148","NA","359144","361314","2032","363132","NA","NA","360323","2016","2016","360715","359144","2016","360323","363132","morph21_Oliver/Morris","49","33630","54","yes","1280","29"
"250","90.9090909091","90.9090909091","623.618181818","623.618181818","black","no","xpyriment","legacy","legacy","0","204","NA","uniform","59172","1000","0.0168998850808","1","undefined","1","0","54","54","54","0","54","54","54","NA","54","54","0","54","NA","54","54","0","54","NA","54","NA","54","0","0","54","54","0","54","54","55","z","03/26/19 12:39:40","The main experiment item","yes","FIN__AB__M21__7%3A10%3A17.osexp","C:\Users\ERP Testing Room\Desktop\Joanna\morph21","no","mono","no","18","no","white","no","yes","1080","legacy","54","54","C:/Users/ERP Testing Room/Desktop/Joanna/morph21/subject-169.csv","xpyriment","Kafkaesque Koffka","3.2.5","0","z","NA","NA","NA","NA","space","z","669","NA","NA","NA","NA","166099","669","2","legacy","1024","2","48000","-16","AB_m21","169","odd","NW_L_COMP","BREAKITY","2016","365974","364257","361323","168131","NA","NA","NA","NA","365971","364754","NA","363749","NA","363737","365971","2032","366224","NA","NA","364982","2016","2016","365374","363737","2016","364982","366224","morph21_Oliver/Morris","50","34299","55","yes","1280","23"
"400","91.0714285714","91.0714285714","620.785714286","620.785714286","black","no","xpyriment","legacy","legacy","0","201","NA","uniform","73181","1000","0.0136647490469","1","undefined","1","0","55","55","55","0","55","55","55","NA","55","55","0","55","NA","55","55","0","55","NA","55","NA","55","0","0","55","55","0","55","55","56","/","03/26/19 12:39:40","The main experiment item","yes","FIN__AB__M21__7%3A10%3A17.osexp","C:\Users\ERP Testing Room\Desktop\Joanna\morph21","no","mono","no","18","no","white","no","yes","1080","legacy","55","55","C:/Users/ERP Testing Room/Desktop/Joanna/morph21/subject-169.csv","xpyriment","Kafkaesque Koffka","3.2.5","0","/","NA","NA","NA","NA","space","/","465","NA","NA","NA","NA","166099","465","2","legacy","1024","2","48000","-16","AB_m21","169","odd","CW_S","AVOIDABLE","2016","369058","367350","361323","168131","NA","NA","NA","NA","369051","367847","NA","366849","NA","366842","369051","2032","369458","NA","NA","368058","2016","2016","368450","366842","2016","368058","369458","morph21_Oliver/Morris","51","34764","56","yes","1280","2"
"350","91.2280701754","91.2280701754","621.614035088","621.614035088","black","no","xpyriment","legacy","legacy","0","201","NA","uniform","63960","1000","0.0156347717323","1","undefined","1","0","56","56","56","0","56","56","56","NA","56","56","0","56","NA","56","56","0","56","NA","56","NA","56","0","0","56","56","0","56","56","57","/","03/26/19 12:39:40","The main experiment item","yes","FIN__AB__M21__7%3A10%3A17.osexp","C:\Users\ERP Testing Room\Desktop\Joanna\morph21","no","mono","no","18","no","white","no","yes","1080","legacy","56","56","C:/Users/ERP Testing Room/Desktop/Joanna/morph21/subject-169.csv","xpyriment","Kafkaesque Koffka","3.2.5","0","/","NA","NA","NA","NA","space","/","668","NA","NA","NA","NA","166099","668","2","legacy","1024","2","48000","-16","AB_m21","169","odd","CW_S","BOSSY","2016","373683","370525","372175","168131","NA","NA","NA","NA","372169","371022","NA","370025","NA","370017","372169","2032","374034","NA","NA","371175","2016","2016","371566","370017","2016","371175","374034","morph21_Oliver/Morris","52","35432","57","yes","1280","49"
"400","91.3793103448","91.3793103448","618.827586207","618.827586207","black","no","xpyriment","legacy","legacy","0","202","NA","uniform","77168","1000","0.0129587393738","1","undefined","1","0","57","57","57","0","57","57","57","NA","57","57","0","57","NA","57","57","0","57","NA","57","NA","57","0","0","57","57","0","57","57","58","/","03/26/19 12:39:40","The main experiment item","yes","FIN__AB__M21__7%3A10%3A17.osexp","C:\Users\ERP Testing Room\Desktop\Joanna\morph21","no","mono","no","18","no","white","no","yes","1080","legacy","57","57","C:/Users/ERP Testing Room/Desktop/Joanna/morph21/subject-169.csv","xpyriment","Kafkaesque Koffka","3.2.5","0","/","NA","NA","NA","NA","space","/","460","NA","NA","NA","NA","166099","460","2","legacy","1024","2","48000","-16","AB_m21","169","odd","CW_L","FAITHFUL","2016","376967","375308","372175","168131","NA","NA","NA","NA","376963","375806","NA","374808","NA","374803","376963","2032","377367","NA","NA","375967","2016","2016","376367","374803","2016","375967","377367","morph21_Oliver/Morris","53","35892","58","yes","1280","20"
"250","91.5254237288","91.5254237288","615.915254237","615.915254237","black","no","xpyriment","legacy","legacy","0","207","NA","uniform","73507","1000","0.0136041465439","1","undefined","1","0","58","58","58","0","58","58","58","NA","58","58","0","58","NA","58","58","0","58","NA","58","NA","58","0","0","58","58","0","58","58","59","/","03/26/19 12:39:40","The main experiment item","yes","FIN__AB__M21__7%3A10%3A17.osexp","C:\Users\ERP Testing Room\Desktop\Joanna\morph21","no","mono","no","18","no","white","no","yes","1080","legacy","58","58","C:/Users/ERP Testing Room/Desktop/Joanna/morph21/subject-169.csv","xpyriment","Kafkaesque Koffka","3.2.5","0","/","NA","NA","NA","NA","space","/","447","NA","NA","NA","NA","166099","447","2","legacy","1024","2","48000","-16","AB_m21","169","odd","FILL_W","SMOKE","2016","380100","378425","372175","168131","NA","NA","NA","NA","380091","378922","NA","377925","NA","377921","380091","2032","380350","NA","NA","379100","2016","2016","379492","377921","2016","379100","380350","morph21_Oliver/Morris","54","36339","59","yes","1280","50"
"300","91.6666666667","91.6666666667","614.283333333","614.283333333","black","no","xpyriment","legacy","legacy","0","204","NA","uniform","70450","1000","0.014194464159","1","undefined","1","0","59","59","59","0","59","59","59","NA","59","59","0","59","NA","59","59","0","59","NA","59","NA","59","0","0","59","59","0","59","59","60","z","03/26/19 12:39:40","The main experiment item","yes","FIN__AB__M21__7%3A10%3A17.osexp","C:\Users\ERP Testing Room\Desktop\Joanna\morph21","no","mono","no","18","no","white","no","yes","1080","legacy","59","59","C:/Users/ERP Testing Room/Desktop/Joanna/morph21/subject-169.csv","xpyriment","Kafkaesque Koffka","3.2.5","0","z","NA","NA","NA","NA","space","z","518","NA","NA","NA","NA","166099","518","2","legacy","1024","2","48000","-16","AB_m21","169","odd","NW_L_COMP","ILLIST","2016","384618","381450","383109","168131","NA","NA","NA","NA","383105","381947","NA","380950","NA","380942","383105","2032","384918","NA","NA","382117","2016","2016","382509","380942","2016","382117","384918","morph21_Oliver/Morris","55","36857","60","yes","1280","9"
"350","91.8032786885","91.8032786885","611.540983607","611.540983607","black","no","xpyriment","legacy","legacy","0","202","NA","uniform","77296","1000","0.0129372800662","1","undefined","1","0","60","60","60","0","60","60","60","NA","60","60","0","60","NA","60","60","0","60","NA","60","NA","60","0","0","60","60","0","60","60","61","/","03/26/19 12:39:40","The main experiment item","yes","FIN__AB__M21__7%3A10%3A17.osexp","C:\Users\ERP Testing Room\Desktop\Joanna\morph21","no","mono","no","18","no","white","no","yes","1080","legacy","60","60","C:/Users/ERP Testing Room/Desktop/Joanna/morph21/subject-169.csv","xpyriment","Kafkaesque Koffka","3.2.5","0","/","NA","NA","NA","NA","space","/","447","NA","NA","NA","NA","166099","447","2","legacy","1024","2","48000","-16","AB_m21","169","odd","CW_L","PARKING","2016","387668","385985","383109","168131","NA","NA","NA","NA","387664","386482","NA","385485","NA","385478","387664","2032","388018","NA","NA","386668","2016","2016","387068","385478","2016","386668","388018","morph21_Oliver/Morris","56","37304","61","yes","1280","25"
"250","91.935483871","91.935483871","610.596774194","610.596774194","black","no","xpyriment","legacy","legacy","0","208","NA","uniform","73885","1000","0.013534546931","1","undefined","1","0","61","61","61","0","61","61","61","NA","61","61","0","61","NA","61","61","0","61","NA","61","NA","61","0","0","61","61","0","61","61","62","z","03/26/19 12:39:40","The main experiment item","yes","FIN__AB__M21__7%3A10%3A17.osexp","C:\Users\ERP Testing Room\Desktop\Joanna\morph21","no","mono","no","18","no","white","no","yes","1080","legacy","61","61","C:/Users/ERP Testing Room/Desktop/Joanna/morph21/subject-169.csv","xpyriment","Kafkaesque Koffka","3.2.5","0","z","NA","NA","NA","NA","space","z","553","NA","NA","NA","NA","166099","553","2","legacy","1024","2","48000","-16","AB_m21","169","odd","FILL_NW","BUWL","2016","390802","389143","383109","168131","NA","NA","NA","NA","390794","389640","NA","388643","NA","388639","390794","2032","391052","NA","NA","389802","2016","2016","390193","388639","2016","389802","391052","morph21_Oliver/Morris","57","37857","62","yes","1280","9"
"300","92.0634920635","92.0634920635","611.53968254","611.53968254","black","no","xpyriment","legacy","legacy","0","205","NA","uniform","68037","1000","0.0146978849744","1","undefined","1","0","62","62","62","0","62","62","62","NA","62","62","0","62","NA","62","62","0","62","NA","62","NA","62","0","0","62","62","0","62","62","63","z","03/26/19 12:39:40","The main experiment item","yes","FIN__AB__M21__7%3A10%3A17.osexp","C:\Users\ERP Testing Room\Desktop\Joanna\morph21","no","mono","no","18","no","white","no","yes","1080","legacy","62","62","C:/Users/ERP Testing Room/Desktop/Joanna/morph21/subject-169.csv","xpyriment","Kafkaesque Koffka","3.2.5","0","z","NA","NA","NA","NA","space","z","670","NA","NA","NA","NA","166099","670","2","legacy","1024","2","48000","-16","AB_m21","169","odd","NW_S_SIMP","SOCKETEL","2016","395394","392185","393885","168131","NA","NA","NA","NA","393876","392682","NA","391685","NA","391678","393876","2032","395694","NA","NA","392885","2016","2016","393277","391678","2016","392885","395694","morph21_Oliver/Morris","58","38527","63","yes","1280","1"
"200","92.1875","92.1875","612.671875","612.671875","black","no","xpyriment","legacy","legacy","0","206","NA","uniform","69150","1000","0.0144613159798","1","undefined","1","0","63","63","63","0","63","63","63","NA","63","63","0","63","NA","63","63","0","63","NA","63","NA","63","0","0","63","63","0","63","63","64","z","03/26/19 12:39:40","The main experiment item","yes","FIN__AB__M21__7%3A10%3A17.osexp","C:\Users\ERP Testing Room\Desktop\Joanna\morph21","no","mono","no","18","no","white","no","yes","1080","legacy","63","63","C:/Users/ERP Testing Room/Desktop/Joanna/morph21/subject-169.csv","xpyriment","Kafkaesque Koffka","3.2.5","0","z","NA","NA","NA","NA","space","z","684","NA","NA","NA","NA","166099","684","2","legacy","1024","2","48000","-16","AB_m21","169","odd","NW_L_SIMP","GROWILT","2016","398527","396860","393885","168131","NA","NA","NA","NA","398519","397357","NA","396360","NA","396354","398519","2032","398727","NA","NA","397527","2016","2016","397919","396354","2016","397527","398727","morph21_Oliver/Morris","59","39211","64","yes","1280","20"
"350","92.3076923077","92.3076923077","611.876923077","611.876923077","black","no","xpyriment","legacy","legacy","0","206","NA","uniform","60837","1000","0.0164373654191","1","undefined","1","0","64","64","64","0","64","64","64","NA","64","64","0","64","NA","64","64","0","64","NA","64","NA","64","0","0","64","64","0","64","64","65","z","03/26/19 12:39:40","The main experiment item","yes","FIN__AB__M21__7%3A10%3A17.osexp","C:\Users\ERP Testing Room\Desktop\Joanna\morph21","no","mono","no","18","no","white","no","yes","1080","legacy","64","64","C:/Users/ERP Testing Room/Desktop/Joanna/morph21/subject-169.csv","xpyriment","Kafkaesque Koffka","3.2.5","0","z","NA","NA","NA","NA","space","z","561","NA","NA","NA","NA","166099","561","2","legacy","1024","2","48000","-16","AB_m21","169","odd","NW_L_SIMP","NUTLA","2016","401594","399902","393885","168131","NA","NA","NA","NA","401583","400399","NA","399402","NA","399396","401583","2032","401944","NA","NA","400594","2016","2016","400985","399396","2016","400594","401944","morph21_Oliver/Morris","60","39772","65","yes","1280","14"
"300","92.4242424242","92.4242424242","612.666666667","612.666666667","black","no","xpyriment","legacy","legacy","0","206","NA","uniform","61993","1000","0.0161308534835","1","undefined","1","0","65","65","65","0","65","65","65","NA","65","65","0","65","NA","65","65","0","65","NA","65","NA","65","0","0","65","65","0","65","65","66","z","03/26/19 12:39:40","The main experiment item","yes","FIN__AB__M21__7%3A10%3A17.osexp","C:\Users\ERP Testing Room\Desktop\Joanna\morph21","no","mono","no","18","no","white","no","yes","1080","legacy","65","65","C:/Users/ERP Testing Room/Desktop/Joanna/morph21/subject-169.csv","xpyriment","Kafkaesque Koffka","3.2.5","0","z","NA","NA","NA","NA","space","z","664","NA","NA","NA","NA","166099","664","2","legacy","1024","2","48000","-16","AB_m21","169","odd","NW_L_SIMP","PRAYANGE","2016","406312","403120","404803","168131","NA","NA","NA","NA","404793","403617","NA","402612","NA","402604","404793","2032","406612","NA","NA","403803","2016","2016","404195","402604","2016","403803","406612","morph21_Oliver/Morris","61","40436","66","yes","1280","1"
"300","92.5373134328","92.5373134328","612.343283582","612.343283582","black","no","xpyriment","legacy","legacy","0","201","NA","uniform","72602","1000","0.0137737252417","1","undefined","1","0","66","66","66","0","66","66","66","NA","66","66","0","66","NA","66","66","0","66","NA","66","NA","66","0","0","66","66","0","66","66","67","/","03/26/19 12:39:40","The main experiment item","yes","FIN__AB__M21__7%3A10%3A17.osexp","C:\Users\ERP Testing Room\Desktop\Joanna\morph21","no","mono","no","18","no","white","no","yes","1080","legacy","66","66","C:/Users/ERP Testing Room/Desktop/Joanna/morph21/subject-169.csv","xpyriment","Kafkaesque Koffka","3.2.5","0","/","NA","NA","NA","NA","space","/","591","NA","NA","NA","NA","166099","591","2","legacy","1024","2","48000","-16","AB_m21","169","odd","CW_S","DETECTABLE","2016","409412","407762","404803","168131","NA","NA","NA","NA","409403","408259","NA","407262","NA","407254","409403","2032","409712","NA","NA","408412","2016","2016","408803","407254","2016","408412","409712","morph21_Oliver/Morris","62","41027","67","yes","1280","1"
"350","92.6470588235","92.6470588235","611.882352941","611.882352941","black","no","xpyriment","legacy","legacy","0","202","NA","uniform","66573","1000","0.015021104652","1","undefined","1","0","67","67","67","0","67","67","67","NA","67","67","0","67","NA","67","67","0","67","NA","67","NA","67","0","0","67","67","0","67","67","68","/","03/26/19 12:39:40","The main experiment item","yes","FIN__AB__M21__7%3A10%3A17.osexp","C:\Users\ERP Testing Room\Desktop\Joanna\morph21","no","mono","no","18","no","white","no","yes","1080","legacy","67","67","C:/Users/ERP Testing Room/Desktop/Joanna/morph21/subject-169.csv","xpyriment","Kafkaesque Koffka","3.2.5","0","/","NA","NA","NA","NA","space","/","581","NA","NA","NA","NA","166099","581","2","legacy","1024","2","48000","-16","AB_m21","169","odd","CW_L","GUARDING","2016","412462","410762","404803","168131","NA","NA","NA","NA","412459","411259","NA","410262","NA","410252","412459","2032","412812","NA","NA","411470","2016","2016","411862","410252","2016","411470","412812","morph21_Oliver/Morris","63","41608","68","yes","1280","26"
"400","92.7536231884","92.7536231884","611.246376812","611.246376812","black","no","xpyriment","legacy","legacy","0","201","NA","uniform","64253","1000","0.0155634756354","1","undefined","1","0","68","68","68","0","68","68","68","NA","68","68","0","68","NA","68","68","0","68","NA","68","NA","68","0","0","68","68","0","68","68","69","/","03/26/19 12:39:40","The main experiment item","yes","FIN__AB__M21__7%3A10%3A17.osexp","C:\Users\ERP Testing Room\Desktop\Joanna\morph21","no","mono","no","18","no","white","no","yes","1080","legacy","68","68","C:/Users/ERP Testing Room/Desktop/Joanna/morph21/subject-169.csv","xpyriment","Kafkaesque Koffka","3.2.5","0","/","NA","NA","NA","NA","space","/","568","NA","NA","NA","NA","166099","568","2","legacy","1024","2","48000","-16","AB_m21","169","odd","CW_S","EFFORTLESS","2016","417087","413912","415579","168131","NA","NA","NA","NA","415570","414409","NA","413412","NA","413402","415570","2032","417487","NA","NA","414579","2016","2016","414970","413402","2016","414579","417487","morph21_Oliver/Morris","64","42176","69","yes","1280","30"
"350","92.8571428571","92.8571428571","608.542857143","608.542857143","black","no","xpyriment","legacy","legacy","0","201","NA","uniform","76396","1000","0.0130896905597","1","undefined","1","0","69","69","69","0","69","69","69","NA","69","69","0","69","NA","69","69","0","69","NA","69","NA","69","0","0","69","69","0","69","69","70","/","03/26/19 12:39:40","The main experiment item","yes","FIN__AB__M21__7%3A10%3A17.osexp","C:\Users\ERP Testing Room\Desktop\Joanna\morph21","no","mono","no","18","no","white","no","yes","1080","legacy","69","69","C:/Users/ERP Testing Room/Desktop/Joanna/morph21/subject-169.csv","xpyriment","Kafkaesque Koffka","3.2.5","0","/","NA","NA","NA","NA","space","/","422","NA","NA","NA","NA","166099","422","2","legacy","1024","2","48000","-16","AB_m21","169","odd","CW_S","CHILLY","2016","420455","418754","415579","168131","NA","NA","NA","NA","420445","419251","NA","418254","NA","418243","420445","2032","420805","NA","NA","419454","2016","2016","419847","418243","2016","419454","420805","morph21_Oliver/Morris","65","42598","70","yes","1280","48"
"250","92.9577464789","92.9577464789","607.85915493","607.85915493","black","no","xpyriment","legacy","legacy","0","201","NA","uniform","65965","1000","0.0151595543091","1","undefined","1","0","70","70","70","0","70","70","70","NA","70","70","0","70","NA","70","70","0","70","NA","70","NA","70","0","0","70","70","0","70","70","71","/","03/26/19 12:39:40","The main experiment item","yes","FIN__AB__M21__7%3A10%3A17.osexp","C:\Users\ERP Testing Room\Desktop\Joanna\morph21","no","mono","no","18","no","white","no","yes","1080","legacy","70","70","C:/Users/ERP Testing Room/Desktop/Joanna/morph21/subject-169.csv","xpyriment","Kafkaesque Koffka","3.2.5","0","/","NA","NA","NA","NA","space","/","560","NA","NA","NA","NA","166099","560","2","legacy","1024","2","48000","-16","AB_m21","169","odd","CW_S","GRIMLY","2016","423755","422038","415579","168131","NA","NA","NA","NA","423751","422536","NA","421538","NA","421528","423751","2032","424005","NA","NA","422763","2016","2016","423155","421528","2016","422763","424005","morph21_Oliver/Morris","66","43158","71","yes","1280","31"
"350","91.6666666667","91.6666666667","613.208333333","613.208333333","black","no","xpyriment","legacy","legacy","0","204","NA","uniform","51730","1000","0.0193311424705","0","undefined","0","0","71","71","71","0","71","71","71","NA","71","71","0","71","NA","71","71","0","71","NA","71","NA","71","0","0","71","71","0","71","71","72","z","03/26/19 12:39:40","The main experiment item","yes","FIN__AB__M21__7%3A10%3A17.osexp","C:\Users\ERP Testing Room\Desktop\Joanna\morph21","no","mono","no","18","no","white","no","yes","1080","legacy","71","71","C:/Users/ERP Testing Room/Desktop/Joanna/morph21/subject-169.csv","xpyriment","Kafkaesque Koffka","3.2.5","0","None","NA","NA","NA","NA","space","None","993","NA","NA","NA","NA","166099","993","2","legacy","1024","2","48000","-16","AB_m21","169","odd","NW_L_COMP","MOUTHIZE","2016","428280","425072","426772","168131","NA","NA","NA","NA","423751","425569","NA","424572","NA","424564","426765","2032","428630","NA","NA","425772","2016","2016","426163","424564","2016","425772","428630","morph21_Oliver/Morris","66","44151","72","yes","1280","11"
"200","90.4109589041","90.4109589041","616.410958904","616.410958904","black","no","xpyriment","legacy","legacy","0","203","NA","uniform","57384","1000","0.0174264603374","0","undefined","0","0","72","72","72","0","72","72","72","NA","72","72","0","72","NA","72","72","0","72","NA","72","NA","72","0","0","72","72","0","72","72","73","z","03/26/19 12:39:40","The main experiment item","yes","FIN__AB__M21__7%3A10%3A17.osexp","C:\Users\ERP Testing Room\Desktop\Joanna\morph21","no","mono","no","18","no","white","no","yes","1080","legacy","72","72","C:/Users/ERP Testing Room/Desktop/Joanna/morph21/subject-169.csv","xpyriment","Kafkaesque Koffka","3.2.5","0","/","NA","NA","NA","NA","space","/","847","NA","NA","NA","NA","166099","847","2","legacy","1024","2","48000","-16","AB_m21","169","odd","NW_S_COMP","ANTISM","2016","431364","429705","426772","168131","NA","NA","NA","NA","423751","430202","NA","429205","NA","429201","431355","2032","431564","NA","NA","430364","2016","2016","430755","429201","2016","430364","431564","morph21_Oliver/Morris","66","44998","73","yes","1280","8"
"200","90.5405405405","90.5405405405","616.364864865","616.364864865","black","no","xpyriment","legacy","legacy","0","205","NA","uniform","64158","1000","0.0155865207768","1","undefined","1","0","73","73","73","0","73","73","73","NA","73","73","0","73","NA","73","73","0","73","NA","73","NA","73","0","0","73","73","0","73","73","74","z","03/26/19 12:39:40","The main experiment item","yes","FIN__AB__M21__7%3A10%3A17.osexp","C:\Users\ERP Testing Room\Desktop\Joanna\morph21","no","mono","no","18","no","white","no","yes","1080","legacy","73","73","C:/Users/ERP Testing Room/Desktop/Joanna/morph21/subject-169.csv","xpyriment","Kafkaesque Koffka","3.2.5","0","z","NA","NA","NA","NA","space","z","613","NA","NA","NA","NA","166099","613","2","legacy","1024","2","48000","-16","AB_m21","169","odd","NW_S_SIMP","NULLITH","2016","434430","432739","426772","168131","NA","NA","NA","NA","434428","433236","NA","432239","NA","432234","434428","2032","434631","NA","NA","433430","2016","2016","433830","432234","2016","433430","434631","morph21_Oliver/Morris","67","45611","74","yes","1280","23"
"400","90.6666666667","90.6666666667","614.573333333","614.573333333","black","no","xpyriment","legacy","legacy","0","202","NA","uniform","68892","1000","0.0145154734947","undefined","undefined","1","0","74","74","74","0","74","74","74","NA","74","74","0","74","NA","74","74","0","74","NA","74","NA","74","0","0","74","74","0","74","74","75","/","03/26/19 12:39:40","The main experiment item","yes","FIN__AB__M21__7%3A10%3A17.osexp","C:\Users\ERP Testing Room\Desktop\Joanna\morph21","no","mono","no","18","no","white","no","yes","1080","legacy","74","74","C:/Users/ERP Testing Room/Desktop/Joanna/morph21/subject-169.csv","xpyriment","Kafkaesque Koffka","3.2.5","0","space","space","NA","NA","NA","space","/","52030","52030","NA","NA","NA","166099","482","2","legacy","1024","2","48000","-16","AB_m21","169","odd","CW_L","COOLING","2016","438990","435806","437482","168131","439398","NA","NA","NA","437472","436303","NA","435306","NA","435296","437472","2032","491428","NA","NA","436481","2016","2016","436872","435296","2016","436481","439390","morph21_Oliver/Morris","68","46093","75","yes","1280","24"
"250","90.7894736842","90.7894736842","615.697368421","615.697368421","black","no","xpyriment","legacy","legacy","0","208","NA","uniform","61336","1000","0.0163036389722","1","undefined","1","0","75","75","75","0","75","75","75","NA","75","75","0","75","NA","75","75","0","75","NA","75","NA","75","0","0","75","75","0","75","75","76","z","03/26/19 12:39:40","The main experiment item","yes","FIN__AB__M21__7%3A10%3A17.osexp","C:\Users\ERP Testing Room\Desktop\Joanna\morph21","no","mono","no","18","no","white","no","yes","1080","legacy","75","75","C:/Users/ERP Testing Room/Desktop/Joanna/morph21/subject-169.csv","xpyriment","Kafkaesque Koffka","3.2.5","0","z","space","NA","NA","NA","space","z","700","52030","NA","NA","NA","166099","700","2","legacy","1024","2","48000","-16","AB_m21","169","odd","FILL_NW","PIFTH","2016","494270","492595","437482","168131","439398","NA","NA","NA","494268","493092","NA","492095","NA","492086","494268","2032","494520","NA","NA","493279","2016","2016","493670","492086","2016","493279","494520","morph21_Oliver/Morris","69","46793","76","yes","1280","36"
"250","90.9090909091","90.9090909091","614.532467532","614.532467532","black","no","xpyriment","legacy","legacy","0","208","NA","uniform","70947","1000","0.0140950286834","1","undefined","1","0","76","76","76","0","76","76","76","NA","76","76","0","76","NA","76","76","0","76","NA","76","NA","76","0","0","76","76","0","76","76","77","z","03/26/19 12:39:40","The main experiment item","yes","FIN__AB__M21__7%3A10%3A17.osexp","C:\Users\ERP Testing Room\Desktop\Joanna\morph21","no","mono","no","18","no","white","no","yes","1080","legacy","76","76","C:/Users/ERP Testing Room/Desktop/Joanna/morph21/subject-169.csv","xpyriment","Kafkaesque Koffka","3.2.5","0","z","space","NA","NA","NA","space","z","526","52030","NA","NA","NA","166099","526","2","legacy","1024","2","48000","-16","AB_m21","169","odd","FILL_NW","LOLDS","2016","497245","495587","437482","168131","439398","NA","NA","NA","497241","496084","NA","495087","NA","495080","497241","2032","497495","NA","NA","496245","2016","2016","496645","495080","2016","496245","497495","morph21_Oliver/Morris","70","47319","77","yes","1280","34"
"200","91.0256410256","91.0256410256","615.602564103","615.602564103","black","no","xpyriment","legacy","legacy","0","207","NA","uniform","55418","1000","0.0180446786243","1","undefined","1","0","77","77","77","0","77","77","77","NA","77","77","0","77","NA","77","77","0","77","NA","77","NA","77","0","0","77","77","0","77","77","78","/","03/26/19 12:39:40","The main experiment item","yes","FIN__AB__M21__7%3A10%3A17.osexp","C:\Users\ERP Testing Room\Desktop\Joanna\morph21","no","mono","no","18","no","white","no","yes","1080","legacy","77","77","C:/Users/ERP Testing Room/Desktop/Joanna/morph21/subject-169.csv","xpyriment","Kafkaesque Koffka","3.2.5","0","/","space","NA","NA","NA","space","/","698","52030","NA","NA","NA","166099","698","2","legacy","1024","2","48000","-16","AB_m21","169","odd","FILL_W","FLOAT","2016","501846","498662","500337","168131","439398","NA","NA","NA","500330","499159","NA","498162","NA","498156","500330","2032","502046","NA","NA","499337","2016","2016","499729","498156","2016","499337","502046","morph21_Oliver/Morris","71","48017","78","yes","1280","30"
"300","91.1392405063","91.1392405063","614.708860759","614.708860759","black","no","xpyriment","legacy","legacy","0","205","NA","uniform","74012","1000","0.0135113224882","1","undefined","1","0","78","78","78","0","78","78","78","NA","78","78","0","78","NA","78","78","0","78","NA","78","NA","78","0","0","78","78","0","78","78","79","z","03/26/19 12:39:40","The main experiment item","yes","FIN__AB__M21__7%3A10%3A17.osexp","C:\Users\ERP Testing Room\Desktop\Joanna\morph21","no","mono","no","18","no","white","no","yes","1080","legacy","78","78","C:/Users/ERP Testing Room/Desktop/Joanna/morph21/subject-169.csv","xpyriment","Kafkaesque Koffka","3.2.5","0","z","space","NA","NA","NA","space","z","545","52030","NA","NA","NA","166099","545","2","legacy","1024","2","48000","-16","AB_m21","169","odd","NW_S_SIMP","WARNODY","2016","504946","503271","500337","168131","439398","NA","NA","NA","504936","503768","NA","502771","NA","502766","504936","2032","505246","NA","NA","503946","2016","2016","504337","502766","2016","503946","505246","morph21_Oliver/Morris","72","48562","79","yes","1280","12"
"350","91.25","91.25","613.1875","613.1875","black","no","xpyriment","legacy","legacy","0","202","NA","uniform","66536","1000","0.0150294577372","1","undefined","1","0","79","79","79","0","79","79","79","NA","79","79","0","79","NA","79","79","0","79","NA","79","NA","79","0","0","79","79","0","79","79","80","/","03/26/19 12:39:40","The main experiment item","yes","FIN__AB__M21__7%3A10%3A17.osexp","C:\Users\ERP Testing Room\Desktop\Joanna\morph21","no","mono","no","18","no","white","no","yes","1080","legacy","79","79","C:/Users/ERP Testing Room/Desktop/Joanna/morph21/subject-169.csv","xpyriment","Kafkaesque Koffka","3.2.5","0","/","space","NA","NA","NA","space","/","493","52030","NA","NA","NA","166099","493","2","legacy","1024","2","48000","-16","AB_m21","169","odd","CW_L","PUNCHER","2016","508039","506329","500337","168131","439398","NA","NA","NA","508032","506826","NA","505829","NA","505822","508032","2032","508389","NA","NA","507039","2016","2016","507430","505822","2016","507039","508389","morph21_Oliver/Morris","73","49055","80","yes","1280","1"
"300","91.3580246914","91.3580246914","613.975308642","613.975308642","black","no","xpyriment","legacy","legacy","0","201","NA","uniform","61628","1000","0.0162263906017","1","undefined","1","0","80","80","80","0","80","80","80","NA","80","80","0","80","NA","80","80","0","80","NA","80","NA","80","0","0","80","80","0","80","80","81","/","03/26/19 12:39:40","The main experiment item","yes","FIN__AB__M21__7%3A10%3A17.osexp","C:\Users\ERP Testing Room\Desktop\Joanna\morph21","no","mono","no","18","no","white","no","yes","1080","legacy","80","80","C:/Users/ERP Testing Room/Desktop/Joanna/morph21/subject-169.csv","xpyriment","Kafkaesque Koffka","3.2.5","0","/","space","NA","NA","NA","space","/","677","52030","NA","NA","NA","166099","677","2","legacy","1024","2","48000","-16","AB_m21","169","odd","CW_S","ATTACKER","2016","512722","509539","511214","168131","439398","NA","NA","NA","511210","510036","NA","509039","NA","509034","511210","2032","513022","NA","NA","510214","2016","2016","510614","509034","2016","510214","513022","morph21_Oliver/Morris","74","49732","81","yes","1280","20"
"400","91.4634146341","91.4634146341","614.048780488","614.048780488","black","no","xpyriment","legacy","legacy","0","202","NA","uniform","67433","1000","0.0148295345009","1","undefined","1","0","81","81","81","0","81","81","81","NA","81","81","0","81","NA","81","81","0","81","NA","81","NA","81","0","0","81","81","0","81","81","82","/","03/26/19 12:39:40","The main experiment item","yes","FIN__AB__M21__7%3A10%3A17.osexp","C:\Users\ERP Testing Room\Desktop\Joanna\morph21","no","mono","no","18","no","white","no","yes","1080","legacy","81","81","C:/Users/ERP Testing Room/Desktop/Joanna/morph21/subject-169.csv","xpyriment","Kafkaesque Koffka","3.2.5","0","/","space","NA","NA","NA","space","/","620","52030","NA","NA","NA","166099","620","2","legacy","1024","2","48000","-16","AB_m21","169","odd","CW_L","STYLISH","2016","515847","514164","511214","168131","439398","NA","NA","NA","515838","514661","NA","513664","NA","513653","515838","2032","516247","NA","NA","514847","2016","2016","515239","513653","2016","514847","516247","morph21_Oliver/Morris","75","50352","82","yes","1280","29"
"400","90.3614457831","90.3614457831","613.674698795","613.674698795","black","no","xpyriment","legacy","legacy","0","204","NA","uniform","72060","1000","0.0138773244518","0","undefined","0","0","82","82","82","0","82","82","82","NA","82","82","0","82","NA","82","82","0","82","NA","82","NA","82","0","0","82","82","0","82","82","83","z","03/26/19 12:39:40","The main experiment item","yes","FIN__AB__M21__7%3A10%3A17.osexp","C:\Users\ERP Testing Room\Desktop\Joanna\morph21","no","mono","no","18","no","white","no","yes","1080","legacy","82","82","C:/Users/ERP Testing Room/Desktop/Joanna/morph21/subject-169.csv","xpyriment","Kafkaesque Koffka","3.2.5","0","/","space","NA","NA","NA","space","/","583","52030","NA","NA","NA","166099","583","2","legacy","1024","2","48000","-16","AB_m21","169","odd","NW_L_COMP","ANGELISH","2016","518964","517297","511214","168131","439398","NA","NA","NA","515838","517794","NA","516797","NA","516788","518955","2032","519364","NA","NA","517964","2016","2016","518356","516788","2016","517964","519364","morph21_Oliver/Morris","75","50935","83","yes","1280","7"
"350","89.2857142857","89.2857142857","612.369047619","612.369047619","black","no","xpyriment","legacy","legacy","0","204","NA","uniform","68221","1000","0.014658243063","0","undefined","0","0","83","83","83","0","83","83","83","NA","83","83","0","83","NA","83","83","0","83","NA","83","NA","83","0","0","83","83","0","83","83","84","z","03/26/19 12:39:40","The main experiment item","yes","FIN__AB__M21__7%3A10%3A17.osexp","C:\Users\ERP Testing Room\Desktop\Joanna\morph21","no","mono","no","18","no","white","no","yes","1080","legacy","83","83","C:/Users/ERP Testing Room/Desktop/Joanna/morph21/subject-169.csv","xpyriment","Kafkaesque Koffka","3.2.5","0","/","space","NA","NA","NA","space","/","504","52030","NA","NA","NA","166099","504","2","legacy","1024","2","48000","-16","AB_m21","169","odd","NW_L_COMP","AGREELY","2016","523639","520464","522131","168131","439398","NA","NA","NA","515838","520961","NA","519964","NA","519954","522122","2032","523989","NA","NA","521131","2016","2016","521522","519954","2016","521131","523989","morph21_Oliver/Morris","75","51439","84","yes","1280","24"
"350","89.4117647059","89.4117647059","611.788235294","611.788235294","black","no","xpyriment","legacy","legacy","0","203","NA","uniform","73494","1000","0.0136065529159","1","undefined","1","0","84","84","84","0","84","84","84","NA","84","84","0","84","NA","84","84","0","84","NA","84","NA","84","0","0","84","84","0","84","84","85","z","03/26/19 12:39:40","The main experiment item","yes","FIN__AB__M21__7%3A10%3A17.osexp","C:\Users\ERP Testing Room\Desktop\Joanna\morph21","no","mono","no","18","no","white","no","yes","1080","legacy","84","84","C:/Users/ERP Testing Room/Desktop/Joanna/morph21/subject-169.csv","xpyriment","Kafkaesque Koffka","3.2.5","0","z","space","NA","NA","NA","space","z","563","52030","NA","NA","NA","166099","563","2","legacy","1024","2","48000","-16","AB_m21","169","odd","NW_S_COMP","WELDIC","2016","526857","525199","522131","168131","439398","NA","NA","NA","526848","525696","NA","524699","NA","524692","526848","2032","527207","NA","NA","525857","2016","2016","526249","524692","2016","525857","527207","morph21_Oliver/Morris","76","52002","85","yes","1280","21"
"250","89.5348837209","89.5348837209","609.395348837","609.395348837","black","no","xpyriment","legacy","legacy","0","202","NA","uniform","70431","1000","0.0141982933651","1","undefined","1","0","85","85","85","0","85","85","85","NA","85","85","0","85","NA","85","85","0","85","NA","85","NA","85","0","0","85","85","0","85","85","86","/","03/26/19 12:39:40","The main experiment item","yes","FIN__AB__M21__7%3A10%3A17.osexp","C:\Users\ERP Testing Room\Desktop\Joanna\morph21","no","mono","no","18","no","white","no","yes","1080","legacy","85","85","C:/Users/ERP Testing Room/Desktop/Joanna/morph21/subject-169.csv","xpyriment","Kafkaesque Koffka","3.2.5","0","/","space","NA","NA","NA","space","/","406","52030","NA","NA","NA","166099","406","2","legacy","1024","2","48000","-16","AB_m21","169","odd","CW_L","LAUGHING","2016","530141","528449","522131","168131","439398","NA","NA","NA","530135","528946","NA","527949","NA","527938","530135","2032","530391","NA","NA","529141","2016","2016","529541","527938","2016","529140","530391","morph21_Oliver/Morris","77","52408","86","yes","1280","27"
"200","89.6551724138","89.6551724138","613.252873563","613.252873563","black","no","xpyriment","legacy","legacy","0","208","NA","uniform","50199","1000","0.0199207155521","1","undefined","1","0","86","86","86","0","86","86","86","NA","86","86","0","86","NA","86","86","0","86","NA","86","NA","86","0","0","86","86","0","86","86","87","z","03/26/19 12:39:40","The main experiment item","yes","FIN__AB__M21__7%3A10%3A17.osexp","C:\Users\ERP Testing Room\Desktop\Joanna\morph21","no","mono","no","18","no","white","no","yes","1080","legacy","86","86","C:/Users/ERP Testing Room/Desktop/Joanna/morph21/subject-169.csv","xpyriment","Kafkaesque Koffka","3.2.5","0","z","space","NA","NA","NA","space","z","945","52030","NA","NA","NA","166099","945","2","legacy","1024","2","48000","-16","AB_m21","169","odd","FILL_NW","PUCTS","2016","534791","531557","533282","168131","439398","NA","NA","NA","533274","532054","NA","531057","NA","531048","533274","2032","534991","NA","NA","532282","2016","2016","532674","531048","2016","532282","534991","morph21_Oliver/Morris","78","53353","87","yes","1280","40"
"200","89.7727272727","89.7727272727","613.897727273","613.897727273","black","no","xpyriment","legacy","legacy","0","208","NA","uniform","64827","1000","0.0154256714023","1","undefined","1","0","87","87","87","0","87","87","87","NA","87","87","0","87","NA","87","87","0","87","NA","87","NA","87","0","0","87","87","0","87","87","88","z","03/26/19 12:39:40","The main experiment item","yes","FIN__AB__M21__7%3A10%3A17.osexp","C:\Users\ERP Testing Room\Desktop\Joanna\morph21","no","mono","no","18","no","white","no","yes","1080","legacy","87","87","C:/Users/ERP Testing Room/Desktop/Joanna/morph21/subject-169.csv","xpyriment","Kafkaesque Koffka","3.2.5","0","z","space","NA","NA","NA","space","z","670","52030","NA","NA","NA","166099","670","2","legacy","1024","2","48000","-16","AB_m21","169","odd","FILL_NW","TUEER","2016","537749","536058","533282","168131","439398","NA","NA","NA","537743","536555","NA","535557","NA","535549","537743","2032","537949","NA","NA","536749","2016","2016","537141","535549","2016","536749","537949","morph21_Oliver/Morris","79","54023","88","yes","1280","44"
"200","89.8876404494","89.8876404494","616.247191011","616.247191011","black","no","xpyriment","legacy","legacy","0","203","NA","uniform","60715","1000","0.0164703944659","1","undefined","1","0","88","88","88","0","88","88","88","NA","88","88","0","88","NA","88","88","0","88","NA","88","NA","88","0","0","88","88","0","88","88","89","z","03/26/19 12:39:40","The main experiment item","yes","FIN__AB__M21__7%3A10%3A17.osexp","C:\Users\ERP Testing Room\Desktop\Joanna\morph21","no","mono","no","18","no","white","no","yes","1080","legacy","88","88","C:/Users/ERP Testing Room/Desktop/Joanna/morph21/subject-169.csv","xpyriment","Kafkaesque Koffka","3.2.5","0","z","space","NA","NA","NA","space","z","823","52030","NA","NA","NA","166099","823","2","legacy","1024","2","48000","-16","AB_m21","169","odd","NW_S_COMP","HAPPENANCE","2016","540908","539216","533282","168131","439398","NA","NA","NA","540903","539713","NA","538716","NA","538708","540903","2032","541108","NA","NA","539908","2016","2016","540308","538708","2016","539908","541108","morph21_Oliver/Morris","80","54846","89","yes","1280","2"
"350","90","90","615.3","615.3","black","no","xpyriment","legacy","legacy","0","206","NA","uniform","66200","1000","0.0151057401813","1","undefined","1","0","89","89","89","0","89","89","89","NA","89","89","0","89","NA","89","89","0","89","NA","89","NA","89","0","0","89","89","0","89","89","90","z","03/26/19 12:39:40","The main experiment item","yes","FIN__AB__M21__7%3A10%3A17.osexp","C:\Users\ERP Testing Room\Desktop\Joanna\morph21","no","mono","no","18","no","white","no","yes","1080","legacy","89","89","C:/Users/ERP Testing Room/Desktop/Joanna/morph21/subject-169.csv","xpyriment","Kafkaesque Koffka","3.2.5","0","z","space","NA","NA","NA","space","z","531","52030","NA","NA","NA","166099","531","2","legacy","1024","2","48000","-16","AB_m21","169","odd","NW_L_SIMP","WITCHITH","2016","545534","542342","544025","168131","439398","NA","NA","NA","544017","542839","NA","541841","NA","541833","544017","2032","545884","NA","NA","543025","2016","2016","543417","541833","2016","543025","545884","morph21_Oliver/Morris","81","55377","90","yes","1280","11"
